accx;accy;accz;time
;;;
484;300;16068;2800
484;300;16068;2976
484;300;16068;3148
484;300;16068;3320
480;276;15924;3492
480;276;15924;3664
480;276;15924;3836
480;276;15924;4016
480;276;15924;492
492;340;15812;5400
472;300;15888;5572
472;300;15888;5744
472;300;15888;5916
472;300;15888;6096
472;300;15888;6268
472;300;15888;6440
476;224;15848;6612
476;224;15848;6784
476;224;15848;6956
476;224;15848;7132
476;224;15848;7304
476;224;15848;7476
480;256;15960;7648
480;256;15960;7824
480;256;15960;7996
480;256;15960;8172
480;256;15960;8344
516;312;16008;8516
516;312;16008;8688
516;312;16008;8860
516;312;16008;9032
516;312;16008;9212
516;312;16008;9384
548;320;15880;9556
548;320;15880;9728
548;320;15880;9900
548;320;15880;10072
548;320;15880;10252
548;320;15880;10424
504;284;15892;10596
504;284;15892;10768
504;284;15892;10940
504;284;15892;11112
504;284;15892;11292
504;284;15892;11464
504;232;15860;11636
504;232;15860;11808
504;232;15860;11980
504;232;15860;12152
504;232;15860;12328
468;212;15700;12500
468;212;15700;12672
468;212;15700;12848
468;212;15700;13020
468;212;15700;13196
468;212;15700;13368
480;232;15712;13540
480;232;15712;13712
480;232;15712;13884
480;232;15712;14056
480;232;15712;14236
480;232;15712;14408
548;272;15768;14580
548;272;15768;14752
548;272;15768;14924
548;272;15768;15096
548;272;15768;15276
548;272;15768;15448
536;264;15736;15620
536;264;15736;15792
536;264;15736;15964
536;264;15736;16136
536;264;15736;16316
512;280;15868;16488
512;280;15868;16660
512;280;15868;16832
512;280;15868;17004
512;280;15868;17176
512;280;15868;17352
440;304;16008;17524
440;304;16008;17696
440;304;16008;17868
440;304;16008;18044
440;304;16008;18216
440;304;16008;18392
428;304;15900;18564
428;304;15900;18736
428;304;15900;18908
428;304;15900;19080
428;304;15900;19252
428;304;15900;19432
496;320;15832;19604
496;320;15832;19776
496;320;15832;19948
496;320;15832;20120
496;320;15832;20292
472;308;15872;20472
472;308;15872;20644
472;308;15872;20816
472;308;15872;20988
472;308;15872;21160
472;308;15872;21332
428;296;15772;21512
428;296;15772;21684
428;296;15772;21856
428;296;15772;22028
428;296;15772;22200
428;296;15772;22372
472;296;15872;22548
472;296;15872;22720
472;296;15872;22892
472;296;15872;23064
472;296;15872;23236
472;296;15872;23412
532;260;15904;23588
532;260;15904;23760
532;260;15904;23932
532;260;15904;24104
532;260;15904;24276
532;260;15904;24456
556;288;15796;24628
556;288;15796;24800
556;288;15796;24972
556;288;15796;25144
556;288;15796;25316
528;304;15932;25496
528;304;15932;25668
528;304;15932;25840
528;304;15932;26012
528;304;15932;26184
528;304;15932;26356
500;280;15892;26532
500;280;15892;26704
500;280;15892;26880
500;280;15892;27052
500;280;15892;27224
500;280;15892;27396
532;280;15840;27572
532;280;15840;27744
532;280;15840;27916
532;280;15840;28088
532;280;15840;28260
532;280;15840;28432
536;308;15912;28612
536;308;15912;28784
536;308;15912;28956
536;308;15912;29128
536;308;15912;29300
560;304;15808;29472
560;304;15808;29652
560;304;15808;29824
560;304;15808;29996
560;304;15808;30168
560;304;15808;30340
496;252;15756;30512
496;252;15756;30692
496;252;15756;30864
496;252;15756;31036
496;252;15756;31208
496;252;15756;31380
440;264;15800;31552
440;264;15800;31728
440;264;15800;31900
440;264;15800;32076
440;264;15800;32248
440;264;15800;32420
448;304;15856;32592
448;304;15856;32768
448;304;15856;32940
448;304;15856;33112
448;304;15856;33284
448;304;15856;33456
428;276;15868;33628
428;276;15868;33808
428;276;15868;33980
428;276;15868;34152
428;276;15868;34324
420;248;15828;34496
420;248;15828;34668
420;248;15828;34848
420;248;15828;35020
420;248;15828;35192
420;248;15828;35364
468;244;15772;35536
468;244;15772;35708
468;244;15772;35888
468;244;15772;36060
468;244;15772;36232
468;244;15772;36404
520;252;15728;36576
520;252;15728;36752
520;252;15728;36924
520;252;15728;37096
520;252;15728;37272
520;252;15728;37444
536;268;15832;37616
536;268;15832;37792
536;268;15832;37964
536;268;15832;38136
536;268;15832;38308
544;256;15876;38480
544;256;15876;38652
544;256;15876;38832
544;256;15876;39004
544;256;15876;39176
544;256;15876;39348
496;256;15896;39520
496;256;15896;39692
496;256;15896;39872
496;256;15896;40044
496;256;15896;40216
496;256;15896;40388
476;252;15964;40560
476;252;15964;40732
476;252;15964;40912
476;252;15964;41084
476;252;15964;41256
476;252;15964;41428
480;276;15916;41600
480;276;15916;41772
480;276;15916;41948
480;276;15916;42120
480;276;15916;42292
504;304;15824;42464
504;304;15824;42640
504;304;15824;42812
504;304;15824;42988
504;304;15824;43160
504;304;15824;43332
532;304;15824;43504
532;304;15824;43676
532;304;15824;43848
532;304;15824;44028
532;304;15824;44200
532;304;15824;44372
508;280;15888;44544
508;280;15888;44716
508;280;15888;44888
508;280;15888;45068
508;280;15888;45240
508;280;15888;45412
464;272;15884;45584
464;272;15884;45756
464;272;15884;45928
464;272;15884;46108
464;272;15884;46280
464;272;15884;46452
472;304;15820;46624
472;304;15820;46796
472;304;15820;46968
472;304;15820;47144
472;304;15820;47316
480;276;15780;47488
480;276;15780;47660
480;276;15780;47836
480;276;15780;48012
480;276;15780;48184
480;276;15780;48356
456;204;15796;48528
456;204;15796;48700
456;204;15796;48872
456;204;15796;49052
456;204;15796;49224
456;204;15796;49396
456;256;15820;49568
456;256;15820;49740
456;256;15820;49912
456;256;15820;50092
456;256;15820;50264
456;256;15820;50436
488;336;15796;50608
488;336;15796;50780
488;336;15796;50952
488;336;15796;51128
488;336;15796;51304
488;276;15772;51476
488;276;15772;51648
488;276;15772;51820
488;276;15772;51992
488;276;15772;52168
488;276;15772;52340
444;248;15788;52512
444;248;15788;52684
444;248;15788;52856
444;248;15788;53032
444;248;15788;53208
444;248;15788;53380
468;244;15736;53552
468;244;15736;53724
468;244;15736;53896
468;244;15736;54068
468;244;15736;54248
468;244;15736;54420
480;220;15732;54592
480;220;15732;54764
480;220;15732;54936
480;220;15732;55108
480;220;15732;55288
484;264;15812;55460
484;264;15812;55632
484;264;15812;55804
484;264;15812;55976
484;264;15812;56148
484;264;15812;56328
512;292;15864;56500
512;292;15864;56672
512;292;15864;56844
512;292;15864;57016
512;292;15864;57188
512;292;15864;57364
524;248;15860;57536
524;248;15860;57708
524;248;15860;57880
524;248;15860;58056
524;248;15860;58228
524;248;15860;58404
528;232;15876;58576
528;232;15876;58748
528;232;15876;58920
528;232;15876;59092
528;232;15876;59272
476;308;15896;59444
476;308;15896;59616
476;308;15896;59788
476;308;15896;59960
476;308;15896;60132
476;308;15896;60312
452;296;15848;60484
452;296;15848;60656
452;296;15848;60828
452;296;15848;61000
452;296;15848;61172
452;296;15848;61348
492;248;15820;61524
492;248;15820;61696
492;248;15820;61868
492;248;15820;62040
492;248;15820;62212
492;248;15820;62388
484;260;15872;62560
484;260;15872;62732
484;260;15872;62904
484;260;15872;63076
484;260;15872;63252
484;260;15872;63428
480;260;15912;63600
480;260;15912;63772
480;260;15912;63944
480;260;15912;64116
480;260;15912;64288
504;268;15916;64468
504;268;15916;64640
504;268;15916;64812
504;268;15916;64984
504;268;15916;65156
504;268;15916;65328
504;276;15860;65508
504;276;15860;144
504;276;15860;316
504;276;15860;488
504;276;15860;660
504;276;15860;832
516;264;15872;1008
516;264;15872;1180
516;264;15872;1352
516;264;15872;1528
516;264;15872;1700
516;264;15872;1872
536;252;15876;2048
536;252;15876;2220
536;252;15876;2392
536;252;15876;2564
536;252;15876;2736
564;244;15792;2908
564;244;15792;3088
564;244;15792;3260
564;244;15792;3432
564;244;15792;3604
564;244;15792;3776
504;232;15788;3948
504;232;15788;4128
504;232;15788;4300
504;232;15788;4472
504;232;15788;4644
504;232;15788;4816
488;284;15712;4988
488;284;15712;5168
488;284;15712;5340
488;284;15712;5512
488;284;15712;5684
488;284;15712;5856
532;316;15672;6032
532;316;15672;6204
532;316;15672;6376
532;316;15672;6548
532;316;15672;6724
532;316;15672;6896
524;272;15812;7072
524;272;15812;7244
524;272;15812;7416
524;272;15812;7588
524;272;15812;7760
500;240;15896;7932
500;240;15896;8112
500;240;15896;8284
500;240;15896;8456
500;240;15896;8628
500;240;15896;8800
472;240;15868;8972
472;240;15868;9152
472;240;15868;9324
472;240;15868;9496
472;240;15868;9668
472;240;15868;9840
504;288;15900;10012
504;288;15900;10192
504;288;15900;10364
504;288;15900;10536
504;288;15900;10708
504;288;15900;10880
548;348;15860;11052
548;348;15860;11228
548;348;15860;11400
548;348;15860;11572
548;348;15860;11744
552;328;15828;11920
552;328;15828;12092
552;328;15828;12268
552;328;15828;12440
552;328;15828;12612
552;328;15828;12784
488;280;15932;12956
488;280;15932;13128
488;280;15932;13308
488;280;15932;13480
488;280;15932;13652
488;280;15932;13824
456;268;15900;13996
456;268;15900;14168
456;268;15900;14348
456;268;15900;14520
456;268;15900;14692
456;268;15900;14864
452;304;15848;15036
452;304;15848;15208
452;304;15848;15388
452;304;15848;15560
452;304;15848;15732
424;300;15804;15904
424;300;15804;16076
424;300;15804;16248
424;300;15804;16424
424;300;15804;16596
424;300;15804;16768
448;232;15768;16940
448;232;15768;17112
448;232;15768;17292
448;232;15768;17464
448;232;15768;17636
448;232;15768;17808
492;256;15804;17980
492;256;15804;18152
492;256;15804;18332
492;256;15804;18504
492;256;15804;18676
492;256;15804;18848
536;308;15860;19020
536;308;15860;19192
536;308;15860;19372
536;308;15860;19544
536;308;15860;19716
536;308;15860;19888
524;276;15920;20060
524;276;15920;20232
524;276;15920;20408
524;276;15920;20580
524;276;15920;20756
476;248;15864;20928
476;248;15864;21100
476;248;15864;21272
476;248;15864;21448
476;248;15864;21620
476;248;15864;21792
480;236;15824;21964
480;236;15824;22136
480;236;15824;22308
480;236;15824;22488
480;236;15824;22660
480;236;15824;22832
504;252;15892;23004
504;252;15892;23176
504;252;15892;23348
504;252;15892;23528
504;252;15892;23700
504;252;15892;23872
480;280;15960;24044
480;280;15960;24216
480;280;15960;24388
480;280;15960;24568
480;280;15960;24740
460;308;15868;24912
460;308;15868;25084
460;308;15868;25256
460;308;15868;25428
460;308;15868;25604
460;308;15868;25776
508;268;15800;25952
508;268;15800;26124
508;268;15800;26296
508;268;15800;26468
508;268;15800;26644
508;268;15800;26816
516;236;15828;26988
516;236;15828;27160
516;236;15828;27332
516;236;15828;27504
516;236;15828;27684
516;236;15828;27856
520;272;15840;28028
520;272;15840;28200
520;272;15840;28372
520;272;15840;28552
520;272;15840;28724
552;252;15848;28896
552;252;15848;29068
552;252;15848;29240
552;252;15848;29412
552;252;15848;29592
552;252;15848;29764
524;252;15816;29936
524;252;15816;30108
524;252;15816;30280
524;252;15816;30452
524;252;15816;30628
524;252;15816;30800
492;276;15852;30976
492;276;15852;31148
492;276;15852;31320
492;276;15852;31492
492;276;15852;31668
492;276;15852;31840
528;256;15888;32012
528;256;15888;32184
528;256;15888;32356
528;256;15888;32528
528;256;15888;32708
528;256;15888;32880
564;272;15816;33052
564;272;15816;33224
564;272;15816;33396
564;272;15816;33568
564;272;15816;33748
540;316;15840;33920
540;316;15840;34092
540;316;15840;34264
540;316;15840;34436
540;316;15840;34608
540;316;15840;34788
544;308;15992;34960
544;308;15992;35132
544;308;15992;35304
544;308;15992;35476
544;308;15992;35648
544;308;15992;35824
552;308;16040;35996
552;308;16040;36172
552;308;16040;36344
552;308;16040;36516
552;308;16040;36688
552;308;16040;36864
512;304;15960;37036
512;304;15960;37208
512;304;15960;37380
512;304;15960;37552
512;304;15960;37724
496;296;15908;37904
496;296;15908;38076
496;296;15908;38248
496;296;15908;38420
496;296;15908;38592
496;296;15908;38764
488;264;15856;38944
488;264;15856;39116
488;264;15856;39288
488;264;15856;39460
488;264;15856;39632
488;264;15856;39804
504;252;15832;39984
504;252;15832;40156
504;252;15832;40328
504;252;15832;40500
504;252;15832;40672
504;252;15832;40848
504;252;15876;41020
504;252;15876;41192
504;252;15876;41368
504;252;15876;41540
504;252;15876;41712
500;232;15912;41888
500;232;15912;42060
500;232;15912;42232
500;232;15912;42404
500;232;15912;42576
500;232;15912;42748
516;248;15888;42928
516;248;15888;43100
516;248;15888;43272
516;248;15888;43444
516;248;15888;43616
516;248;15888;43788
516;220;15852;43968
516;220;15852;44140
516;220;15852;44312
516;220;15852;44484
516;220;15852;44656
516;220;15852;44828
524;160;15824;45008
524;160;15824;45180
524;160;15824;45352
524;160;15824;45524
524;160;15824;45696
540;160;15832;45868
540;160;15832;46044
540;160;15832;46216
540;160;15832;46388
540;160;15832;46560
540;160;15832;46736
552;244;15820;46908
552;244;15820;47084
552;244;15820;47256
552;244;15820;47428
552;244;15820;47600
552;244;15820;47772
536;332;15876;47944
536;332;15876;48124
536;332;15876;48296
536;332;15876;48468
536;332;15876;48640
536;332;15876;48812
524;312;15916;48984
524;312;15916;49164
524;312;15916;49336
524;312;15916;49508
524;312;15916;49680
524;312;15916;49852
544;304;15840;50024
544;304;15840;50204
544;304;15840;50376
544;304;15840;50548
544;304;15840;50720
488;340;15812;50892
488;340;15812;51064
488;340;15812;51240
488;340;15812;51412
488;340;15812;51584
488;340;15812;51756
448;328;15784;51932
448;328;15784;52108
448;328;15784;52280
448;328;15784;52452
448;328;15784;52624
448;328;15784;52796
480;300;15736;52968
480;300;15736;53148
480;300;15736;53320
480;300;15736;53492
480;300;15736;53664
480;300;15736;53836
488;280;15700;54008
488;280;15700;54188
488;280;15700;54360
488;280;15700;54532
488;280;15700;54704
532;284;15760;54876
532;284;15760;55048
532;284;15760;55224
532;284;15760;55400
532;284;15760;55572
532;284;15760;55744
512;316;15792;55916
512;316;15792;56088
512;316;15792;56264
512;316;15792;56436
512;316;15792;56608
512;316;15792;56780
496;324;15776;56952
496;324;15776;57128
496;324;15776;57304
496;324;15776;57476
496;324;15776;57648
496;324;15776;57820
468;228;15820;57992
468;228;15820;58164
468;228;15820;58344
468;228;15820;58516
468;228;15820;58688
468;228;15820;58860
432;232;15808;59032
432;232;15808;59204
432;232;15808;59384
432;232;15808;59556
432;232;15808;59728
456;312;15832;59900
456;312;15832;60072
456;312;15832;60244
456;312;15832;60420
456;312;15832;60596
456;312;15832;60768
464;324;15848;60940
464;324;15848;61112
464;324;15848;61284
464;324;15848;61460
464;324;15848;61632
464;324;15848;61804
492;292;15844;61976
492;292;15844;62148
492;292;15844;62320
492;292;15844;62500
492;292;15844;62672
492;292;15844;62844
516;256;15904;63016
516;256;15904;63188
516;256;15904;63368
516;256;15904;63540
516;256;15904;63712
464;264;15828;63884
464;264;15828;64056
464;264;15828;64228
464;264;15828;64408
464;264;15828;64580
464;264;15828;64752
428;260;15836;64924
428;260;15836;65096
428;260;15836;65268
428;260;15836;65444
428;260;15836;80
428;260;15836;252
496;256;15916;428
496;256;15916;600
496;256;15916;772
496;256;15916;948
496;256;15916;1120
496;256;15916;1292
552;228;15908;1464
552;228;15908;1636
552;228;15908;1808
552;228;15908;1988
552;228;15908;2160
556;236;15868;2332
556;236;15868;2504
556;236;15868;2676
556;236;15868;2848
556;236;15868;3028
556;236;15868;3200
564;264;15852;3372
564;264;15852;3544
564;264;15852;3716
564;264;15852;3888
564;264;15852;4068
564;264;15852;4240
556;304;15816;4412
556;304;15816;4584
556;304;15816;4756
556;304;15816;4928
556;304;15816;5104
556;304;15816;5276
520;344;15788;5448
520;344;15788;5624
520;344;15788;5796
520;344;15788;5968
520;344;15788;6144
520;344;15788;6316
508;336;15848;6488
508;336;15848;6660
508;336;15848;6832
508;336;15848;7004
508;336;15848;7184
508;308;15900;7356
508;308;15900;7528
508;308;15900;7700
508;308;15900;7872
508;308;15900;8044
508;308;15900;8224
508;272;15864;8396
508;272;15864;8568
508;272;15864;8740
508;272;15864;8912
508;272;15864;9084
508;272;15864;9264
480;244;15848;9436
480;244;15848;9608
480;244;15848;9780
480;244;15848;9952
480;244;15848;10128
480;244;15848;10300
500;256;15764;10472
500;256;15764;10648
500;256;15764;10820
500;256;15764;10992
500;256;15764;11168
544;308;15780;11340
544;308;15780;11512
544;308;15780;11684
544;308;15780;11856
544;308;15780;12028
544;308;15780;12208
548;292;15884;12380
548;292;15884;12552
548;292;15884;12724
548;292;15884;12896
548;292;15884;13068
548;292;15884;13248
564;256;15816;13420
564;256;15816;13592
564;256;15816;13764
564;256;15816;13936
564;256;15816;14108
564;256;15816;14288
532;304;15792;14460
532;304;15792;14632
532;304;15792;14804
532;304;15792;14976
532;304;15792;15148
528;272;15852;15324
528;272;15852;15496
528;272;15852;15668
528;272;15852;15844
528;272;15852;16016
528;272;15852;16188
568;244;15852;16364
568;244;15852;16536
568;244;15852;16708
568;244;15852;16880
568;244;15852;17052
568;244;15852;17224
556;312;15824;17404
556;312;15824;17576
556;312;15824;17748
556;312;15824;17920
556;312;15824;18092
556;312;15824;18264
524;316;15828;18444
524;316;15828;18616
524;316;15828;18788
524;316;15828;18960
524;316;15828;19132
524;316;15828;19304
524;320;15800;19484
524;320;15800;19656
524;320;15800;19828
524;320;15800;20000
524;320;15800;20172
520;316;15888;20344
520;316;15888;20520
520;316;15888;20692
520;316;15888;20864
520;316;15888;21040
520;316;15888;21212
532;280;15928;21388
532;280;15928;21560
532;280;15928;21732
532;280;15928;21904
532;280;15928;22076
532;280;15928;22248
532;312;15872;22428
532;312;15872;22600
532;312;15872;22772
532;312;15872;22944
532;312;15872;23116
532;312;15872;23288
476;332;15856;23468
476;332;15856;23640
476;332;15856;23812
476;332;15856;23984
476;332;15856;24156
436;296;15860;24328
436;296;15860;24508
436;296;15860;24680
436;296;15860;24852
436;296;15860;25024
436;296;15860;25196
468;292;15924;25368
468;292;15924;25544
468;292;15924;25716
468;292;15924;25888
468;292;15924;26060
468;292;15924;26232
540;296;15928;26408
540;296;15928;26584
540;296;15928;26756
540;296;15928;26928
540;296;15928;27100
540;296;15928;27272
548;316;15840;27444
548;316;15840;27624
548;316;15840;27796
548;316;15840;27968
548;316;15840;28140
540;360;15840;28312
540;360;15840;28484
540;360;15840;28664
540;360;15840;28836
540;360;15840;29008
540;360;15840;29180
516;320;15884;29352
516;320;15884;29524
516;320;15884;29700
516;320;15884;29876
516;320;15884;30048
516;320;15884;30220
516;240;15908;30392
516;240;15908;30564
516;240;15908;30740
516;240;15908;30912
516;240;15908;31084
516;240;15908;31256
512;244;15944;31428
512;244;15944;31604
512;244;15944;31780
512;244;15944;31952
512;244;15944;32124
512;244;15944;32296
504;268;15948;32468
504;268;15948;32648
504;268;15948;32820
504;268;15948;32992
504;268;15948;33164
508;244;15852;33336
508;244;15852;33508
508;244;15852;33688
508;244;15852;33860
508;244;15852;34032
508;244;15852;34204
484;240;15796;34376
484;240;15796;34548
484;240;15796;34724
484;240;15796;34896
484;240;15796;35072
484;240;15796;35244
532;280;15880;35416
532;280;15880;35588
532;280;15880;35764
532;280;15880;35936
532;280;15880;36108
532;280;15880;36280
560;284;15896;36452
560;284;15896;36624
560;284;15896;36804
560;284;15896;36976
560;284;15896;37148
536;256;15836;37320
536;256;15836;37492
536;256;15836;37664
536;256;15836;37844
536;256;15836;38016
536;256;15836;38188
528;248;15824;38360
528;248;15824;38532
528;248;15824;38704
528;248;15824;38884
528;248;15824;39056
528;248;15824;39228
516;232;15856;39400
516;232;15856;39572
516;232;15856;39744
516;232;15856;39920
516;232;15856;40092
516;232;15856;40268
508;240;15796;40440
508;240;15796;40612
508;240;15796;40784
508;240;15796;40960
508;240;15796;41132
496;272;15732;41304
496;272;15732;41476
496;272;15732;41648
496;272;15732;41820
496;272;15732;42000
496;272;15732;42172
532;308;15812;42344
532;308;15812;42516
532;308;15812;42688
532;308;15812;42860
532;308;15812;43040
532;308;15812;43212
532;316;15824;43384
532;316;15824;43556
532;316;15824;43728
532;316;15824;43900
532;316;15824;44080
532;316;15824;44252
528;296;15836;44424
528;296;15836;44596
528;296;15836;44768
528;296;15836;44944
528;296;15836;45116
528;296;15836;45288
568;320;15892;45460
568;320;15892;45636
568;320;15892;45808
568;320;15892;45984
568;320;15892;46156
548;340;15880;46328
548;340;15880;46500
548;340;15880;46672
548;340;15880;46844
548;340;15880;47024
548;340;15880;47196
500;300;15816;47368
500;300;15816;47540
500;300;15816;47712
500;300;15816;47884
500;300;15816;48064
500;300;15816;48236
532;308;15884;48408
532;308;15884;48580
532;308;15884;48752
532;308;15884;48924
532;308;15884;49104
532;308;15884;49276
552;320;15940;49448
552;320;15940;49620
552;320;15940;49792
552;320;15940;49964
552;320;15940;50140
520;288;15836;50312
520;288;15836;50488
520;288;15836;50660
520;288;15836;50832
520;288;15836;51004
520;288;15836;51180
496;312;15852;51352
496;312;15852;51524
496;312;15852;51696
496;312;15852;51868
496;312;15852;52040
496;312;15852;52220
520;276;15880;52392
520;276;15880;52564
520;276;15880;52736
520;276;15880;52908
520;276;15880;53080
520;276;15880;53260
560;220;15908;53432
560;220;15908;53604
560;220;15908;53776
560;220;15908;53948
560;220;15908;54120
540;196;15892;54300
540;196;15892;54472
540;196;15892;54644
540;196;15892;54816
540;196;15892;54988
540;196;15892;55160
512;224;15832;55336
512;224;15832;55508
512;224;15832;55680
512;224;15832;55856
512;224;15832;56028
512;224;15832;56204
480;280;15816;56376
480;280;15816;56548
480;280;15816;56720
480;280;15816;56892
480;280;15816;57064
480;280;15816;57244
544;304;15812;57416
544;304;15812;57588
544;304;15812;57760
544;304;15812;57932
544;304;15812;58104
544;304;15812;58284
588;308;15848;58456
588;308;15848;58628
588;308;15848;58800
588;308;15848;58972
588;308;15848;59144
512;260;15908;59324
512;260;15908;59496
512;260;15908;59668
512;260;15908;59840
512;260;15908;60012
512;260;15908;60184
512;220;15848;60360
512;220;15848;60532
512;220;15848;60704
512;220;15848;60876
512;220;15848;61052
512;220;15848;61224
516;256;15800;61400
516;256;15800;61572
516;256;15800;61744
516;256;15800;61916
516;256;15800;62088
516;256;15800;62260
476;264;15832;62440
476;264;15832;62612
476;264;15832;62784
476;264;15832;62956
476;264;15832;63128
524;244;15820;63300
524;244;15820;63480
524;244;15820;63652
524;244;15820;63824
524;244;15820;63996
524;244;15820;64168
532;248;15852;64340
532;248;15852;64520
532;248;15852;64692
532;248;15852;64864
532;248;15852;65036
532;248;15852;65208
576;216;15832;65380
576;216;15832;20
576;216;15832;192
576;216;15832;364
576;216;15832;536
576;216;15832;712
616;256;15784;884
616;256;15784;1060
616;256;15784;1232
616;256;15784;1404
616;256;15784;1576
552;332;15872;1748
552;332;15872;1928
552;332;15872;2100
552;332;15872;2272
552;332;15872;2444
552;332;15872;2616
492;344;15940;2788
492;344;15940;2968
492;344;15940;3140
492;344;15940;3312
492;344;15940;3484
492;344;15940;3656
520;300;15908;3828
520;300;15908;4004
520;300;15908;4180
520;300;15908;4352
520;300;15908;4524
520;300;15908;4696
544;236;15856;4868
544;236;15856;5044
544;236;15856;5216
544;236;15856;5388
544;236;15856;5560
544;236;15856;5732
516;236;15872;5904
516;236;15872;6084
516;236;15872;6256
516;236;15872;6428
516;236;15872;6600
552;292;15920;6772
552;292;15920;6944
552;292;15920;7124
552;292;15920;7296
552;292;15920;7468
552;292;15920;7640
560;272;15940;7812
560;272;15940;7984
560;272;15940;8164
560;272;15940;8336
560;272;15940;8508
560;272;15940;8680
528;280;15900;8852
528;280;15900;9024
528;280;15900;9200
528;280;15900;9372
528;280;15900;9548
528;280;15900;9720
488;328;15788;9892
488;328;15788;10064
488;328;15788;10240
488;328;15788;10412
488;328;15788;10584
488;260;15836;10756
488;260;15836;10928
488;260;15836;11100
488;260;15836;11280
488;260;15836;11452
488;260;15836;11624
504;216;15932;11796
504;216;15932;11968
504;216;15932;12140
504;216;15932;12320
504;216;15932;12492
504;216;15932;12664
492;272;15948;12836
492;272;15948;13008
492;272;15948;13180
492;272;15948;13360
492;272;15948;13532
492;272;15948;13704
512;304;15944;13876
512;304;15944;14048
512;304;15944;14224
512;304;15944;14396
512;304;15944;14568
536;288;15924;14744
536;288;15924;14916
536;288;15924;15088
536;288;15924;15264
536;288;15924;15436
536;288;15924;15608
544;272;15916;15780
544;272;15916;15952
544;272;15916;16124
544;272;15916;16304
544;272;15916;16476
544;272;15916;16648
504;304;15908;16820
504;304;15908;16992
504;304;15908;17164
504;304;15908;17344
504;304;15908;17516
504;304;15908;17688
516;304;15876;17860
516;304;15876;18032
516;304;15876;18204
516;304;15876;18384
516;304;15876;18556
516;304;15876;18728
516;228;15900;18900
516;228;15900;19072
516;228;15900;19244
516;228;15900;19420
516;228;15900;19592
472;176;15932;19764
472;176;15932;19940
472;176;15932;20112
472;176;15932;20284
472;176;15932;20460
472;176;15932;20632
520;240;15904;20804
520;240;15904;20976
520;240;15904;21148
520;240;15904;21320
520;240;15904;21500
520;240;15904;21672
560;288;15860;21844
560;288;15860;22016
560;288;15860;22188
560;288;15860;22360
560;288;15860;22540
560;288;15860;22712
556;268;15800;22884
556;268;15800;23056
556;268;15800;23228
556;268;15800;23400
556;268;15800;23580
484;272;15804;23752
484;272;15804;23924
484;272;15804;24096
484;272;15804;24268
484;272;15804;24440
484;272;15804;24616
492;264;15880;24788
492;264;15880;24960
492;264;15880;25132
492;264;15880;25308
492;264;15880;25484
492;264;15880;25656
516;252;15924;25828
516;252;15924;26000
516;252;15924;26172
516;252;15924;26344
516;252;15924;26524
516;252;15924;26696
532;236;15908;26868
532;236;15908;27040
532;236;15908;27212
532;236;15908;27384
532;236;15908;27564
580;296;15900;27736
580;296;15900;27908
580;296;15900;28080
580;296;15900;28252
580;296;15900;28424
580;296;15900;28604
536;320;15840;28776
536;320;15840;28948
536;320;15840;29120
536;320;15840;29292
536;320;15840;29464
536;320;15840;29640
504;276;15816;29812
504;276;15816;29984
504;276;15816;30160
504;276;15816;30332
504;276;15816;30504
504;276;15816;30680
508;268;15840;30852
508;268;15840;31024
508;268;15840;31196
508;268;15840;31368
508;268;15840;31540
508;268;15840;31720
492;252;15828;31892
492;252;15828;32064
492;252;15828;32236
492;252;15828;32408
492;252;15828;32580
476;236;15868;32760
476;236;15868;32932
476;236;15868;33104
476;236;15868;33276
476;236;15868;33448
476;236;15868;33620
536;244;15892;33800
536;244;15892;33972
536;244;15892;34144
536;244;15892;34316
536;244;15892;34488
536;244;15892;34660
508;268;15844;34836
508;268;15844;35008
508;268;15844;35180
508;268;15844;35352
508;268;15844;35528
508;268;15844;35700
440;260;15840;35876
440;260;15840;36048
440;260;15840;36220
440;260;15840;36392
440;260;15840;36564
480;248;15900;36744
480;248;15900;36916
480;248;15900;37088
480;248;15900;37260
480;248;15900;37432
480;248;15900;37604
536;272;15916;37784
536;272;15916;37956
536;272;15916;38128
536;272;15916;38300
536;272;15916;38472
536;272;15916;38644
568;304;15912;38820
568;304;15912;38996
568;304;15912;39168
568;304;15912;39340
568;304;15912;39512
568;304;15912;39684
496;300;15900;39860
496;300;15900;40032
496;300;15900;40204
496;300;15900;40376
496;300;15900;40548
448;292;15816;40724
448;292;15816;40900
448;292;15816;41072
448;292;15816;41244
448;292;15816;41416
448;292;15816;41588
480;280;15856;41760
480;280;15856;41940
480;280;15856;42112
480;280;15856;42284
480;280;15856;42456
480;280;15856;42628
508;252;15872;42800
508;252;15872;42980
508;252;15872;43152
508;252;15872;43324
508;252;15872;43496
508;252;15872;43668
476;252;15912;43840
476;252;15912;44016
476;252;15912;44188
476;252;15912;44364
476;252;15912;44536
476;252;15912;44708
440;280;15944;44880
440;280;15944;45056
440;280;15944;45228
440;280;15944;45400
440;280;15944;45572
496;300;15980;45744
496;300;15980;45916
496;300;15980;46096
496;300;15980;46268
496;300;15980;46440
496;300;15980;46612
540;256;15972;46784
540;256;15972;46956
540;256;15972;47136
540;256;15972;47308
540;256;15972;47480
540;256;15972;47652
552;200;15908;47824
552;200;15908;47996
552;200;15908;48176
552;200;15908;48348
552;200;15908;48520
552;200;15908;48692
508;204;15940;48864
508;204;15940;49040
508;204;15940;49212
508;204;15940;49384
508;204;15940;49556
508;292;15828;49732
508;292;15828;49904
508;292;15828;50080
508;292;15828;50252
508;292;15828;50424
508;292;15828;50596
564;328;15876;50768
564;328;15876;50940
564;328;15876;51120
564;328;15876;51292
564;328;15876;51464
564;328;15876;51636
552;300;15884;51808
552;300;15884;51980
552;300;15884;52160
552;300;15884;52332
552;300;15884;52504
552;300;15884;52676
532;312;15856;52848
532;312;15856;53020
532;312;15856;53200
532;312;15856;53372
532;312;15856;53544
528;328;15876;53716
528;328;15876;53888
528;328;15876;54060
528;328;15876;54236
528;328;15876;54408
528;328;15876;54580
512;308;15804;54752
512;308;15804;54928
512;308;15804;55100
512;308;15804;55276
512;308;15804;55448
512;308;15804;55620
516;308;15836;55792
516;308;15836;55964
516;308;15836;56136
516;308;15836;56316
516;308;15836;56488
516;308;15836;56660
516;316;15880;56832
516;316;15880;57004
516;316;15880;57176
516;316;15880;57356
516;316;15880;57528
516;316;15880;57700
520;304;15924;57872
520;304;15924;58044
520;304;15924;58216
520;304;15924;58396
520;304;15924;58568
504;292;15900;58740
504;292;15900;58912
504;292;15900;59084
504;292;15900;59256
504;292;15900;59432
504;292;15900;59604
456;296;15760;59776
456;296;15760;59948
456;296;15760;60124
456;296;15760;60300
456;296;15760;60472
456;296;15760;60644
496;344;15768;60816
496;344;15768;60988
496;344;15768;61160
496;344;15768;61340
496;344;15768;61512
496;344;15768;61684
548;336;15852;61856
548;336;15852;62028
548;336;15852;62200
548;336;15852;62380
548;336;15852;62552
524;288;15836;62724
524;288;15836;62896
524;288;15836;63068
524;288;15836;63240
524;288;15836;63416
524;288;15836;63592
492;280;15896;63764
492;280;15896;63936
492;280;15896;64108
492;280;15896;64280
492;280;15896;64456
492;280;15896;64628
488;296;15972;64800
488;296;15972;64972
488;296;15972;65144
488;296;15972;65316
488;296;15972;65496
488;296;15972;132
520;304;15936;304
520;304;15936;476
520;304;15936;648
520;304;15936;820
520;304;15936;1000
556;280;15872;1172
556;280;15872;1344
556;280;15872;1516
556;280;15872;1688
556;280;15872;1860
556;280;15872;2040
572;276;15876;2212
572;276;15876;2384
572;276;15876;2556
572;276;15876;2728
572;276;15876;2900
572;276;15876;3076
536;296;15896;3248
536;296;15896;3424
536;296;15896;3596
536;296;15896;3768
536;296;15896;3940
536;296;15896;4116
496;272;15896;4288
496;272;15896;4460
496;272;15896;4632
496;272;15896;4808
496;272;15896;4980
496;272;15896;5156
516;284;15900;5328
516;284;15900;5500
516;284;15900;5672
516;284;15900;5844
516;284;15900;6024
532;348;15920;6196
532;348;15920;6368
532;348;15920;6540
532;348;15920;6712
532;348;15920;6884
532;348;15920;7064
500;324;15884;7236
500;324;15884;7408
500;324;15884;7580
500;324;15884;7752
500;324;15884;7924
500;324;15884;8100
508;288;15844;8276
508;288;15844;8448
508;288;15844;8620
508;288;15844;8792
508;288;15844;8964
508;288;15844;9140
564;308;15900;9312
564;308;15900;9484
564;308;15900;9656
564;308;15900;9828
564;308;15900;10000
540;308;15856;10180
540;308;15856;10352
540;308;15856;10524
540;308;15856;10696
540;308;15856;10868
540;308;15856;11040
512;304;15832;11220
512;304;15832;11392
512;304;15832;11564
512;304;15832;11736
512;304;15832;11908
512;304;15832;12080
516;288;15924;12260
516;288;15924;12432
516;288;15924;12604
516;288;15924;12776
516;288;15924;12948
516;288;15924;13120
512;280;16004;13296
512;280;16004;13468
512;280;16004;13644
512;280;16004;13816
512;280;16004;13988
488;296;15924;14160
488;296;15924;14336
488;296;15924;14508
488;296;15924;14680
488;296;15924;14852
488;296;15924;15024
452;332;15848;15196
452;332;15848;15376
452;332;15848;15548
452;332;15848;15720
452;332;15848;15892
452;332;15848;16064
436;328;15940;16236
436;328;15940;16416
436;328;15940;16588
436;328;15940;16760
436;328;15940;16932
436;328;15940;17104
480;296;15928;17276
480;296;15928;17456
480;296;15928;17628
480;296;15928;17800
480;296;15928;17972
480;296;15928;18144
484;304;15828;18320
484;304;15828;18492
484;304;15828;18664
484;304;15828;18840
484;304;15828;19012
464;296;15860;19184
464;296;15860;19360
464;296;15860;19532
464;296;15860;19704
464;296;15860;19876
464;296;15860;20048
496;252;15944;20220
496;252;15944;20400
496;252;15944;20572
496;252;15944;20744
496;252;15944;20916
496;252;15944;21088
524;244;15956;21260
524;244;15956;21440
524;244;15956;21612
524;244;15956;21784
524;244;15956;21956
524;244;15956;22128
556;316;15904;22300
556;316;15904;22480
556;316;15904;22652
556;316;15904;22824
556;316;15904;22996
500;324;15860;23168
500;324;15860;23340
500;324;15860;23516
500;324;15860;23688
500;324;15860;23860
500;324;15860;24036
476;308;15892;24208
476;308;15892;24380
476;308;15892;24556
476;308;15892;24728
476;308;15892;24900
476;308;15892;25072
488;328;15860;25244
488;328;15860;25416
488;328;15860;25596
488;328;15860;25768
488;328;15860;25940
488;328;15860;26112
504;304;15800;26284
504;304;15800;26456
504;304;15800;26636
504;304;15800;26808
504;304;15800;26980
544;272;15812;27152
544;272;15812;27324
544;272;15812;27496
544;272;15812;27676
544;272;15812;27848
544;272;15812;28020
524;320;15876;28192
524;320;15876;28364
524;320;15876;28536
524;320;15876;28712
524;320;15876;28884
524;320;15876;29056
508;352;15920;29228
508;352;15920;29404
508;352;15920;29580
508;352;15920;29752
508;352;15920;29924
508;352;15920;30096
520;308;15856;30268
520;308;15856;30440
520;308;15856;30620
520;308;15856;30792
520;308;15856;30964
520;308;15856;31136
512;296;15876;31308
512;296;15876;31480
512;296;15876;31660
512;296;15876;31832
512;296;15876;32004
508;296;15932;32176
508;296;15932;32348
508;296;15932;32520
508;296;15932;32696
508;296;15932;32872
508;296;15932;33044
492;264;15868;33216
492;264;15868;33388
492;264;15868;33560
492;264;15868;33736
492;264;15868;33908
492;264;15868;34080
468;228;15820;34252
468;228;15820;34424
468;228;15820;34600
468;228;15820;34776
468;228;15820;34948
468;228;15820;35120
440;240;15808;35292
440;240;15808;35464
440;240;15808;35636
440;240;15808;35816
440;240;15808;35988
440;304;15796;36160
440;304;15796;36332
440;304;15796;36504
440;304;15796;36676
440;304;15796;36856
440;304;15796;37028
500;308;15800;37200
500;308;15800;37372
500;308;15800;37544
500;308;15800;37716
500;308;15800;37892
500;308;15800;38068
504;228;15828;38240
504;228;15828;38412
504;228;15828;38584
504;228;15828;38756
504;228;15828;38932
504;228;15828;39104
500;268;15848;39276
500;268;15848;39448
500;268;15848;39620
500;268;15848;39796
500;268;15848;39972
544;312;15856;40144
544;312;15856;40316
544;312;15856;40488
544;312;15856;40660
544;312;15856;40840
544;312;15856;41012
548;296;15848;41184
548;296;15848;41356
548;296;15848;41528
548;296;15848;41700
548;296;15848;41880
548;296;15848;42052
548;308;15836;42224
548;308;15836;42396
548;308;15836;42568
548;308;15836;42740
548;308;15836;42916
548;308;15836;43088
568;280;15820;43264
568;280;15820;43436
568;280;15820;43608
568;280;15820;43780
568;280;15820;43956
568;280;15820;44128
536;280;15832;44300
536;280;15832;44472
536;280;15832;44644
536;280;15832;44816
536;280;15832;44996
508;320;15896;45168
508;320;15896;45340
508;320;15896;45512
508;320;15896;45684
508;320;15896;45856
508;320;15896;46036
512;324;15912;46208
512;324;15912;46380
512;324;15912;46552
512;324;15912;46724
512;324;15912;46896
512;324;15912;47076
456;328;15948;47248
456;328;15948;47420
456;328;15948;47592
456;328;15948;47764
456;328;15948;47936
456;328;15948;48112
448;272;15952;48288
448;272;15952;48460
448;272;15952;48632
448;272;15952;48804
448;272;15952;48976
484;188;15900;49152
484;188;15900;49324
484;188;15900;49496
484;188;15900;49668
484;188;15900;49840
484;188;15900;50016
468;228;15816;50192
468;228;15816;50364
468;228;15816;50536
468;228;15816;50708
468;228;15816;50880
468;228;15816;51052
508;284;15900;51232
508;284;15900;51404
508;284;15900;51576
508;284;15900;51748
508;284;15900;51920
508;284;15900;52092
536;280;16004;52272
536;280;16004;52444
536;280;16004;52616
536;280;16004;52788
536;280;16004;52960
504;300;15952;53136
504;300;15952;53308
504;300;15952;53484
504;300;15952;53656
504;300;15952;53828
504;300;15952;54000
516;256;15928;54176
516;256;15928;54348
516;256;15928;54520
516;256;15928;54692
516;256;15928;54864
516;256;15928;55036
536;228;15912;55216
536;228;15912;55388
536;228;15912;55560
536;228;15912;55732
536;228;15912;55904
536;228;15912;56076
548;272;15860;56256
548;272;15860;56428
548;272;15860;56600
548;272;15860;56772
548;272;15860;56944
548;272;15860;57116
600;284;15812;57296
600;284;15812;57468
600;284;15812;57640
600;284;15812;57812
600;284;15812;57984
576;288;15784;58156
576;288;15784;58332
576;288;15784;58504
576;288;15784;58676
576;288;15784;58852
576;288;15784;59024
516;284;15752;59196
516;284;15752;59372
516;284;15752;59544
516;284;15752;59716
516;284;15752;59888
516;284;15752;60060
496;268;15820;60232
496;268;15820;60412
496;268;15820;60584
496;268;15820;60756
496;268;15820;60928
496;268;15820;61100
496;288;15812;61272
496;288;15812;61452
496;288;15812;61624
496;288;15812;61796
496;288;15812;61968
492;332;15812;62140
492;332;15812;62312
492;332;15812;62492
492;332;15812;62664
492;332;15812;62836
492;332;15812;63008
484;316;15892;63180
484;316;15892;63352
484;316;15892;63528
484;316;15892;63700
484;316;15892;63872
484;316;15892;64048
476;304;15892;64220
476;304;15892;64396
476;304;15892;64568
476;304;15892;64740
476;304;15892;64912
476;304;15892;65084
508;304;15856;65256
508;304;15856;65436
508;304;15856;72
508;304;15856;244
508;304;15856;416
548;308;15856;588
548;308;15856;760
548;308;15856;940
548;308;15856;1112
548;308;15856;1284
548;308;15856;1456
552;280;15792;1628
552;280;15792;1800
552;280;15792;1980
552;280;15792;2152
552;280;15792;2324
552;280;15792;2496
536;264;15736;2668
536;264;15736;2840
536;264;15736;3016
536;264;15736;3188
536;264;15736;3360
536;264;15736;3532
512;300;15760;3708
512;300;15760;3880
512;300;15760;4056
512;300;15760;4228
512;300;15760;4400
512;300;15760;4572
484;304;15816;4744
484;304;15816;4916
484;304;15816;5096
484;304;15816;5268
484;304;15816;5440
444;296;15844;5612
444;296;15844;5784
444;296;15844;5956
444;296;15844;6136
444;296;15844;6308
444;296;15844;6480
492;292;15860;6652
492;292;15860;6824
492;292;15860;6996
492;292;15860;7176
492;292;15860;7348
492;292;15860;7520
528;272;15864;7692
528;272;15864;7864
528;272;15864;8036
528;272;15864;8212
528;272;15864;8384
528;272;15864;8556
536;280;15808;8728
536;280;15808;8900
536;280;15808;9076
536;280;15808;9252
536;280;15808;9424
552;284;15812;9596
552;284;15812;9768
552;284;15812;9940
552;284;15812;10120
552;284;15812;10292
552;284;15812;10464
512;300;15836;10636
512;300;15836;10808
512;300;15836;10980
512;300;15836;11160
512;300;15836;11332
512;300;15836;11504
492;296;15844;11676
492;296;15844;11848
492;296;15844;12020
492;296;15844;12196
492;296;15844;12368
492;296;15844;12544
532;296;15828;12716
532;296;15828;12888
532;296;15828;13060
532;296;15828;13236
532;296;15828;13408
524;344;15776;13580
524;344;15776;13752
524;344;15776;13924
524;344;15776;14096
524;344;15776;14276
524;344;15776;14448
476;328;15804;14620
476;328;15804;14792
476;328;15804;14964
476;328;15804;15136
476;328;15804;15316
476;328;15804;15488
500;264;15880;15660
500;264;15880;15832
500;264;15880;16004
500;264;15880;16176
500;264;15880;16356
500;264;15880;16528
540;236;15824;16700
540;236;15824;16872
540;236;15824;17044
540;236;15824;17216
540;236;15824;17392
540;236;15824;17564
524;268;15800;17740
524;268;15800;17912
524;268;15800;18084
524;268;15800;18256
524;268;15800;18432
512;276;15924;18604
512;276;15924;18776
512;276;15924;18948
512;276;15924;19120
512;276;15924;19292
512;276;15924;19472
512;296;15936;19644
512;296;15936;19816
512;296;15936;19988
512;296;15936;20160
512;296;15936;20332
512;296;15936;20512
528;340;15864;20684
528;340;15864;20856
528;340;15864;21028
528;340;15864;21200
528;340;15864;21372
528;340;15864;21552
500;336;15820;21724
500;336;15820;21896
500;336;15820;22068
500;336;15820;22240
500;336;15820;22416
456;296;15820;22588
456;296;15820;22760
456;296;15820;22936
456;296;15820;23108
456;296;15820;23280
456;296;15820;23456
484;300;15772;23628
484;300;15772;23800
484;300;15772;23972
484;300;15772;24144
484;300;15772;24316
484;300;15772;24496
520;288;15772;24668
520;288;15772;24840
520;288;15772;25012
520;288;15772;25184
520;288;15772;25356
520;288;15772;25536
484;248;15804;25708
484;248;15804;25880
484;248;15804;26052
484;248;15804;26224
484;248;15804;26396
484;304;15852;26576
484;304;15852;26748
484;304;15852;26920
484;304;15852;27092
484;304;15852;27264
484;304;15852;27436
540;324;15928;27612
540;324;15928;27784
540;324;15928;27960
540;324;15928;28132
540;324;15928;28304
540;324;15928;28476
544;308;15868;28652
544;308;15868;28824
544;308;15868;28996
544;308;15868;29168
544;308;15868;29340
544;308;15868;29512
504;280;15824;29692
504;280;15824;29864
504;280;15824;30036
504;280;15824;30208
504;280;15824;30380
504;280;15824;30552
516;272;15816;30732
516;272;15816;30904
516;272;15816;31076
516;272;15816;31248
516;272;15816;31420
528;336;15804;31592
528;336;15804;31772
528;336;15804;31944
528;336;15804;32116
528;336;15804;32288
528;336;15804;32460
524;340;15856;32632
524;340;15856;32808
524;340;15856;32980
524;340;15856;33156
524;340;15856;33328
524;340;15856;33500
504;320;15952;33676
504;320;15952;33848
504;320;15952;34020
504;320;15952;34192
504;320;15952;34364
504;320;15952;34536
472;296;15944;34716
472;296;15944;34888
472;296;15944;35060
472;296;15944;35232
472;296;15944;35404
480;248;15856;35576
480;248;15856;35756
480;248;15856;35928
480;248;15856;36100
480;248;15856;36272
480;248;15856;36444
460;248;15828;36616
460;248;15828;36796
460;248;15828;36968
460;248;15828;37140
460;248;15828;37312
460;248;15828;37484
476;248;15844;37656
476;248;15844;37832
476;248;15844;38004
476;248;15844;38176
476;248;15844;38348
476;248;15844;38524
508;252;15864;38696
508;252;15864;38872
508;252;15864;39044
508;252;15864;39216
508;252;15864;39388
532;324;15856;39560
532;324;15856;39732
532;324;15856;39912
532;324;15856;40084
532;324;15856;40256
532;324;15856;40428
536;336;15848;40600
536;336;15848;40772
536;336;15848;40952
536;336;15848;41124
536;336;15848;41296
536;336;15848;41468
528;324;15832;41640
528;324;15832;41812
528;324;15832;41992
528;324;15832;42164
528;324;15832;42336
528;324;15832;42508
512;276;15808;42680
512;276;15808;42852
512;276;15808;43028
512;276;15808;43200
512;276;15808;43372
512;276;15808;43544
480;260;15864;43720
480;260;15864;43892
480;260;15864;44068
480;260;15864;44240
480;260;15864;44412
460;328;15892;44584
460;328;15892;44756
460;328;15892;44936
460;328;15892;45108
460;328;15892;45280
460;328;15892;45452
504;276;15920;45624
504;276;15920;45796
504;276;15920;45976
504;276;15920;46148
504;276;15920;46320
504;276;15920;46492
512;232;15864;46664
512;232;15864;46836
512;232;15864;47012
512;232;15864;47188
512;232;15864;47360
512;232;15864;47532
480;260;15792;47704
480;260;15792;47876
480;260;15792;48052
480;260;15792;48224
480;260;15792;48396
524;288;15836;48568
524;288;15836;48740
524;288;15836;48916
524;288;15836;49092
524;288;15836;49264
524;288;15836;49436
532;300;15892;49608
532;300;15892;49780
532;300;15892;49952
532;300;15892;50132
532;300;15892;50304
532;300;15892;50476
488;264;15856;50648
488;264;15856;50820
488;264;15856;50992
488;264;15856;51172
488;264;15856;51344
488;264;15856;51516
492;248;15880;51688
492;248;15880;51860
492;248;15880;52032
492;248;15880;52208
492;248;15880;52380
528;256;15860;52552
528;256;15860;52728
528;256;15860;52900
528;256;15860;53072
528;256;15860;53248
528;256;15860;53420
552;272;15792;53592
552;272;15792;53764
552;272;15792;53936
552;272;15792;54108
552;272;15792;54288
552;272;15792;54460
512;296;15844;54632
512;296;15844;54804
512;296;15844;54976
512;296;15844;55148
512;296;15844;55328
512;296;15844;55500
500;296;15924;55672
500;296;15924;55844
500;296;15924;56016
500;296;15924;56188
500;296;15924;56368
500;296;15924;56540
544;276;15876;56712
544;276;15876;56884
544;276;15876;57056
544;276;15876;57232
544;276;15876;57404
532;268;15816;57576
532;268;15816;57748
532;268;15816;57924
532;268;15816;58096
532;268;15816;58272
532;268;15816;58444
496;340;15872;58616
496;340;15872;58788
496;340;15872;58960
496;340;15872;59132
496;340;15872;59312
496;340;15872;59484
528;324;15828;59656
528;324;15828;59828
528;324;15828;60000
528;324;15828;60172
528;324;15828;60352
528;324;15828;60524
552;272;15816;60696
552;272;15816;60868
552;272;15816;61040
552;272;15816;61212
552;272;15816;61392
524;308;15800;61564
524;308;15800;61736
524;308;15800;61908
524;308;15800;62080
524;308;15800;62252
524;308;15800;62428
520;296;15852;62600
520;296;15852;62772
520;296;15852;62944
520;296;15852;63120
520;296;15852;63292
520;296;15852;63468
488;296;15912;63640
488;296;15912;63812
488;296;15912;63984
488;296;15912;64156
488;296;15912;64328
488;296;15912;64508
472;284;15852;64680
472;284;15852;64852
472;284;15852;65024
472;284;15852;65196
472;284;15852;65368
504;284;15828;12
504;284;15828;184
504;284;15828;356
504;284;15828;528
504;284;15828;700
504;284;15828;872
556;332;15864;1052
556;332;15864;1224
556;332;15864;1396
556;332;15864;1568
556;332;15864;1740
556;332;15864;1912
532;300;15852;2088
532;300;15852;2260
532;300;15852;2432
532;300;15852;2608
532;300;15852;2780
532;300;15852;2956
528;284;15848;3128
528;284;15848;3300
528;284;15848;3472
528;284;15848;3644
528;284;15848;3816
528;284;15848;3996
580;276;15868;4168
580;276;15868;4340
580;276;15868;4512
580;276;15868;4684
580;276;15868;4856
516;248;15864;5036
516;248;15864;5208
516;248;15864;5380
516;248;15864;5552
516;248;15864;5724
516;248;15864;5896
460;312;15852;6076
460;312;15852;6248
460;312;15852;6420
460;312;15852;6592
460;312;15852;6764
460;312;15852;6936
500;292;15844;7112
500;292;15844;7284
500;292;15844;7456
500;292;15844;7628
500;292;15844;7804
500;292;15844;7976
536;260;15872;8152
536;260;15872;8324
536;260;15872;8496
536;260;15872;8668
536;260;15872;8840
500;252;15816;9012
500;252;15816;9192
500;252;15816;9364
500;252;15816;9536
500;252;15816;9708
500;252;15816;9880
492;196;15796;10052
492;196;15796;10232
492;196;15796;10404
492;196;15796;10576
492;196;15796;10748
492;196;15796;10920
572;240;15832;11092
572;240;15832;11272
572;240;15832;11444
572;240;15832;11616
572;240;15832;11788
572;240;15832;11960
564;276;15840;12132
564;276;15840;12308
564;276;15840;12480
564;276;15840;12652
564;276;15840;12824
520;260;15932;12996
520;260;15932;13172
520;260;15932;13348
520;260;15932;13520
520;260;15932;13692
520;260;15932;13864
536;292;15964;14036
536;292;15964;14216
536;292;15964;14388
536;292;15964;14560
536;292;15964;14732
536;292;15964;14904
536;340;15936;15076
536;340;15936;15256
536;340;15936;15428
536;340;15936;15600
536;340;15936;15772
536;340;15936;15944
516;304;15908;16116
516;304;15908;16292
516;304;15908;16464
516;304;15908;16640
516;304;15908;16812
516;304;15908;16984
524;244;15940;17156
524;244;15940;17332
524;244;15940;17504
524;244;15940;17676
524;244;15940;17848
536;240;15992;18020
536;240;15992;18192
536;240;15992;18372
536;240;15992;18544
536;240;15992;18716
536;240;15992;18888
528;224;15892;19060
528;224;15892;19232
528;224;15892;19412
528;224;15892;19584
528;224;15892;19756
528;224;15892;19928
544;232;15784;20100
544;232;15784;20272
544;232;15784;20452
544;232;15784;20624
544;232;15784;20796
544;232;15784;20968
544;256;15816;21140
544;256;15816;21312
544;256;15816;21488
544;256;15816;21660
544;256;15816;21836
496;276;15884;22008
496;276;15884;22180
496;276;15884;22352
496;276;15884;22528
496;276;15884;22700
496;276;15884;22872
496;296;15868;23044
496;296;15868;23216
496;296;15868;23388
496;296;15868;23568
496;296;15868;23740
496;296;15868;23912
556;280;15860;24084
556;280;15860;24256
556;280;15860;24428
556;280;15860;24608
556;280;15860;24780
556;280;15860;24952
584;248;15900;25124
584;248;15900;25296
584;248;15900;25468
584;248;15900;25648
584;248;15900;25820
572;280;15912;25992
572;280;15912;26164
572;280;15912;26336
572;280;15912;26512
572;280;15912;26684
572;280;15912;26856
472;320;15876;27032
472;320;15876;27204
472;320;15876;27376
472;320;15876;27552
472;320;15876;27724
472;320;15876;27896
412;304;15844;28068
412;304;15844;28240
412;304;15844;28412
412;304;15844;28592
412;304;15844;28764
412;304;15844;28936
476;308;15792;29108
476;308;15792;29280
476;308;15792;29452
476;308;15792;29632
476;308;15792;29804
476;308;15792;29976
524;296;15848;30148
524;296;15848;30320
524;296;15848;30492
524;296;15848;30672
524;296;15848;30844
496;300;15920;31016
496;300;15920;31188
496;300;15920;31360
496;300;15920;31532
496;300;15920;31708
496;300;15920;31880
488;292;15912;32052
488;292;15912;32224
488;292;15912;32400
488;292;15912;32572
488;292;15912;32748
488;292;15912;32920
548;272;15932;33092
548;272;15932;33264
548;272;15932;33436
548;272;15932;33608
548;272;15932;33788
548;272;15932;33960
560;268;15912;34132
560;268;15912;34304
560;268;15912;34476
560;268;15912;34648
560;268;15912;34828
540;292;15868;35000
540;292;15868;35172
540;292;15868;35344
540;292;15868;35516
540;292;15868;35688
540;292;15868;35868
504;348;15840;36040
504;348;15840;36212
504;348;15840;36384
504;348;15840;36556
504;348;15840;36728
504;348;15840;36904
488;324;15864;37076
488;324;15864;37248
488;324;15864;37420
488;324;15864;37596
488;324;15864;37772
488;324;15864;37944
504;272;15920;38116
504;272;15920;38288
504;272;15920;38460
504;272;15920;38632
504;272;15920;38812
532;264;15884;38984
532;264;15884;39156
532;264;15884;39328
532;264;15884;39500
532;264;15884;39672
532;264;15884;39852
536;276;15912;40024
536;276;15912;40196
536;276;15912;40368
536;276;15912;40540
536;276;15912;40712
536;276;15912;40888
488;288;15880;41064
488;288;15880;41236
488;288;15880;41408
488;288;15880;41580
488;288;15880;41752
488;288;15880;41928
524;316;15804;42100
524;316;15804;42272
524;316;15804;42444
524;316;15804;42616
524;316;15804;42792
524;316;15804;42968
536;284;15852;43140
536;284;15852;43312
536;284;15852;43484
536;284;15852;43656
536;284;15852;43828
524;236;15824;44008
524;236;15824;44180
524;236;15824;44352
524;236;15824;44524
524;236;15824;44696
524;236;15824;44868
536;240;15824;45048
536;240;15824;45220
536;240;15824;45392
536;240;15824;45564
536;240;15824;45736
536;240;15824;45908
512;272;15860;46088
512;272;15860;46260
512;272;15860;46432
512;272;15860;46604
512;272;15860;46776
512;272;15860;46948
440;284;15820;47124
440;284;15820;47296
440;284;15820;47468
440;284;15820;47640
440;284;15820;47816
412;284;15740;47988
412;284;15740;48164
412;284;15740;48336
412;284;15740;48508
412;284;15740;48680
412;284;15740;48852
480;320;15756;49032
480;320;15756;49204
480;320;15756;49376
480;320;15756;49548
480;320;15756;49720
480;320;15756;49892
544;308;15896;50072
544;308;15896;50244
544;308;15896;50416
544;308;15896;50588
544;308;15896;50760
544;308;15896;50932
548;312;15956;51108
548;312;15956;51284
548;312;15956;51456
548;312;15956;51628
548;312;15956;51800
564;328;15884;51972
564;328;15884;52148
564;328;15884;52320
564;328;15884;52492
564;328;15884;52664
564;328;15884;52836
572;328;15884;53012
572;328;15884;53188
572;328;15884;53360
572;328;15884;53532
572;328;15884;53704
572;328;15884;53876
548;348;15932;54048
548;348;15932;54228
548;348;15932;54400
548;348;15932;54572
548;348;15932;54744
548;348;15932;54916
572;312;15932;55088
572;312;15932;55268
572;312;15932;55440
572;312;15932;55612
572;312;15932;55784
572;312;15932;55956
580;280;15852;56128
580;280;15852;56304
580;280;15852;56476
580;280;15852;56648
580;280;15852;56824
544;256;15784;56996
544;256;15784;57168
544;256;15784;57344
544;256;15784;57516
544;256;15784;57688
544;256;15784;57860
552;240;15864;58032
552;240;15864;58204
552;240;15864;58384
552;240;15864;58556
552;240;15864;58728
552;240;15864;58900
548;276;15880;59072
548;276;15880;59244
548;276;15880;59424
548;276;15880;59596
548;276;15880;59768
548;276;15880;59940
508;284;15876;60112
508;284;15876;60284
508;284;15876;60464
508;284;15876;60636
508;284;15876;60808
500;292;15908;60980
500;292;15908;61152
500;292;15908;61328
500;292;15908;61500
500;292;15908;61672
500;292;15908;61844
480;256;15832;62020
480;256;15832;62192
480;256;15832;62368
480;256;15832;62540
480;256;15832;62712
480;256;15832;62884
468;228;15828;63056
468;228;15828;63228
468;228;15828;63408
468;228;15828;63580
468;228;15828;63752
468;228;15828;63924
452;276;15856;64096
452;276;15856;64268
452;276;15856;64448
452;276;15856;64620
452;276;15856;64792
472;300;15864;64964
472;300;15864;65136
472;300;15864;65308
472;300;15864;65488
472;300;15864;124
472;300;15864;296
540;260;15812;468
540;260;15812;640
540;260;15812;812
540;260;15812;988
540;260;15812;1160
540;260;15812;1332
544;228;15756;1504
544;228;15756;1680
544;228;15756;1852
544;228;15756;2028
544;228;15756;2200
544;228;15756;2372
504;288;15796;2544
504;288;15796;2716
504;288;15796;2888
504;288;15796;3068
504;288;15796;3240
504;288;15796;3412
524;264;15808;3584
524;264;15808;3756
524;264;15808;3928
524;264;15808;4108
524;264;15808;4280
520;208;15836;4452
520;208;15836;4624
520;208;15836;4796
520;208;15836;4968
520;208;15836;5148
520;208;15836;5320
488;232;15896;5492
488;232;15896;5664
488;232;15896;5836
488;232;15896;6008
488;232;15896;6184
488;232;15896;6356
492;264;15900;6528
492;264;15900;6700
492;264;15900;6872
492;264;15900;7052
492;264;15900;7224
492;264;15900;7396
512;284;15892;7568
512;284;15892;7740
512;284;15892;7912
512;284;15892;8092
512;284;15892;8264
532;272;15892;8436
532;272;15892;8608
532;272;15892;8780
532;272;15892;8952
532;272;15892;9132
532;272;15892;9304
500;284;15856;9476
500;284;15856;9648
500;284;15856;9820
500;284;15856;9992
500;284;15856;10168
500;284;15856;10340
536;304;15924;10516
536;304;15924;10688
536;304;15924;10860
536;304;15924;11032
536;304;15924;11208
536;304;15924;11380
560;296;15948;11552
560;296;15948;11724
560;296;15948;11896
560;296;15948;12068
560;296;15948;12248
548;268;15880;12420
548;268;15880;12592
548;268;15880;12764
548;268;15880;12936
548;268;15880;13108
548;268;15880;13288
552;276;15856;13460
552;276;15856;13632
552;276;15856;13804
552;276;15856;13976
552;276;15856;14148
552;276;15856;14328
524;264;15868;14500
524;264;15868;14672
524;264;15868;14844
524;264;15868;15016
524;264;15868;15188
524;264;15868;15364
500;256;15964;15536
500;256;15964;15712
500;256;15964;15884
500;256;15964;16056
500;256;15964;16228
500;256;15964;16404
508;256;15940;16576
508;256;15940;16748
508;256;15940;16920
508;256;15940;17092
508;256;15940;17264
560;244;15820;17444
560;244;15820;17616
560;244;15820;17788
560;244;15820;17960
560;244;15820;18132
560;244;15820;18312
548;244;15780;18484
548;244;15780;18656
548;244;15780;18828
548;244;15780;19000
548;244;15780;19172
548;244;15780;19352
496;284;15760;19524
496;284;15760;19696
496;284;15760;19868
496;284;15760;20040
496;284;15760;20212
496;284;15760;20388
540;308;15796;20560
540;308;15796;20732
540;308;15796;20908
540;308;15796;21080
540;308;15796;21252
540;264;15844;21428
540;264;15844;21600
540;264;15844;21772
540;264;15844;21944
540;264;15844;22116
540;264;15844;22288
500;252;15800;22468
500;252;15800;22640
500;252;15800;22812
500;252;15800;22984
500;252;15800;23156
500;252;15800;23328
476;244;15808;23508
476;244;15808;23680
476;244;15808;23852
476;244;15808;24024
476;244;15808;24196
476;244;15808;24368
476;260;15852;24548
476;260;15852;24720
476;260;15852;24892
476;260;15852;25064
476;260;15852;25236
520;292;15876;25408
520;292;15876;25584
520;292;15876;25756
520;292;15876;25932
520;292;15876;26104
520;292;15876;26276
532;300;15912;26448
532;300;15912;26624
532;300;15912;26796
532;300;15912;26968
532;300;15912;27140
532;300;15912;27312
548;284;15932;27484
548;284;15932;27664
548;284;15932;27836
548;284;15932;28008
548;284;15932;28180
548;284;15932;28352
500;220;15896;28524
500;220;15896;28704
500;220;15896;28876
500;220;15896;29048
500;220;15896;29220
500;220;15896;29392
468;248;15940;29564
468;248;15940;29744
468;248;15940;29916
468;248;15940;30088
468;248;15940;30260
484;292;15932;30432
484;292;15932;30608
484;292;15932;30780
484;292;15932;30952
484;292;15932;31128
484;292;15932;31300
520;256;15840;31472
520;256;15840;31648
520;256;15840;31820
520;256;15840;31992
520;256;15840;32164
520;256;15840;32336
544;228;15828;32508
544;228;15828;32688
544;228;15828;32860
544;228;15828;33032
544;228;15828;33204
544;228;15828;33376
500;252;15892;33548
500;252;15892;33728
500;252;15892;33900
500;252;15892;34072
500;252;15892;34244
472;296;15900;34416
472;296;15900;34588
472;296;15900;34768
472;296;15900;34940
472;296;15900;35112
472;296;15900;35284
484;292;15832;35456
484;292;15832;35628
484;292;15832;35804
484;292;15832;35976
484;292;15832;36148
484;292;15832;36320
508;272;15828;36496
508;272;15828;36668
508;272;15828;36844
508;272;15828;37016
508;272;15828;37188
508;272;15828;37360
536;292;15856;37532
536;292;15856;37704
536;292;15856;37884
536;292;15856;38056
536;292;15856;38228
540;316;15888;38400
540;316;15888;38572
540;316;15888;38744
540;316;15888;38924
540;316;15888;39096
540;316;15888;39268
508;292;15816;39440
508;292;15816;39612
508;292;15816;39784
508;292;15816;39964
508;292;15816;40136
508;292;15816;40308
508;248;15872;40480
508;248;15872;40652
508;248;15872;40824
508;248;15872;41000
508;248;15872;41172
508;248;15872;41344
552;224;15896;41516
552;224;15896;41692
552;224;15896;41868
552;224;15896;42040
552;224;15896;42212
552;224;15896;42384
556;256;15820;42556
556;256;15820;42728
556;256;15820;42908
556;256;15820;43080
556;256;15820;43252
564;324;15872;43424
564;324;15872;43596
564;324;15872;43768
564;324;15872;43948
564;324;15872;44120
564;324;15872;44292
536;304;15948;44464
536;304;15948;44636
536;304;15948;44808
536;304;15948;44984
536;304;15948;45160
536;304;15948;45332
480;248;15968;45504
480;248;15968;45676
480;248;15968;45848
480;248;15968;46024
480;248;15968;46196
480;248;15968;46368
512;276;15876;46540
512;276;15876;46712
512;276;15876;46888
512;276;15876;47064
512;276;15876;47236
524;280;15840;47408
524;280;15840;47580
524;280;15840;47752
524;280;15840;47924
524;280;15840;48104
524;280;15840;48276
492;272;15848;48448
492;272;15848;48620
492;272;15848;48792
492;272;15848;48964
492;272;15848;49144
492;272;15848;49316
504;248;15820;49488
504;248;15820;49660
504;248;15820;49832
504;248;15820;50004
504;248;15820;50180
504;248;15820;50356
520;256;15836;50528
520;256;15836;50700
520;256;15836;50872
520;256;15836;51044
520;256;15836;51220
508;300;15856;51392
508;300;15856;51564
508;300;15856;51736
508;300;15856;51908
508;300;15856;52080
508;300;15856;52260
492;264;15924;52432
492;264;15924;52604
492;264;15924;52776
492;264;15924;52948
492;264;15924;53128
492;264;15924;53300
516;268;15900;53472
516;268;15900;53644
516;268;15900;53816
516;268;15900;53988
516;268;15900;54168
516;268;15900;54340
456;268;15788;54512
456;268;15788;54684
456;268;15788;54856
456;268;15788;55028
456;268;15788;55204
456;268;15788;55376
456;244;15836;55548
456;244;15836;55724
456;244;15836;55896
456;244;15836;56068
456;244;15836;56244
524;296;15872;56416
524;296;15872;56588
524;296;15872;56760
524;296;15872;56932
524;296;15872;57104
524;296;15872;57284
544;296;15852;57456
544;296;15852;57628
544;296;15852;57800
544;296;15852;57972
544;296;15852;58144
544;296;15852;58324
580;308;15868;58496
580;308;15868;58668
580;308;15868;58840
580;308;15868;59012
580;308;15868;59184
580;308;15868;59364
544;324;15828;59536
544;324;15828;59708
544;324;15828;59880
544;324;15828;60052
544;324;15828;60224
512;292;15836;60400
512;292;15836;60572
512;292;15836;60744
512;292;15836;60920
512;292;15836;61092
512;292;15836;61264
528;272;15844;61440
528;272;15844;61612
528;272;15844;61784
528;272;15844;61956
528;272;15844;62128
528;272;15844;62300
556;272;15748;62480
556;272;15748;62652
556;272;15748;62824
556;272;15748;62996
556;272;15748;63168
556;272;15748;63340
544;272;15772;63520
544;272;15772;63692
544;272;15772;63864
544;272;15772;64036
544;272;15772;64208
528;252;15836;64380
528;252;15836;64560
528;252;15836;64732
528;252;15836;64904
528;252;15836;65076
528;252;15836;65248
552;240;15832;65424
552;240;15832;60
552;240;15832;232
552;240;15832;408
552;240;15832;580
552;240;15832;752
544;268;15888;928
544;268;15888;1100
544;268;15888;1272
544;268;15888;1444
544;268;15888;1616
544;268;15888;1788
520;288;15916;1968
520;288;15916;2140
520;288;15916;2312
520;288;15916;2484
520;288;15916;2656
520;288;15916;2828
560;296;15876;3008
560;296;15876;3180
560;296;15876;3352
560;296;15876;3524
560;296;15876;3696
532;280;15820;3868
532;280;15820;4048
532;280;15820;4220
532;280;15820;4392
532;280;15820;4564
532;280;15820;4736
500;228;15816;4908
500;228;15816;5084
500;228;15816;5256
500;228;15816;5428
500;228;15816;5604
500;228;15816;5776
580;252;15876;5948
580;252;15876;6124
580;252;15876;6296
580;252;15876;6468
580;252;15876;6640
580;252;15876;6812
596;252;15996;6984
596;252;15996;7164
596;252;15996;7336
596;252;15996;7508
596;252;15996;7680
552;200;15916;7852
552;200;15916;8024
552;200;15916;8204
552;200;15916;8376
552;200;15916;8548
552;200;15916;8720
548;216;15696;8892
548;216;15696;9064
548;216;15696;9244
548;216;15696;9416
548;216;15696;9588
548;216;15696;9760
536;256;15752;9932
536;256;15752;10104
536;256;15752;10280
536;256;15752;10452
536;256;15752;10624
536;256;15752;10800
520;284;15896;10972
520;284;15896;11148
520;284;15896;11320
520;284;15896;11492
520;284;15896;11664
520;284;15896;11836
536;300;15916;12008
536;300;15916;12188
536;300;15916;12360
536;300;15916;12532
536;300;15916;12704
584;288;15880;12876
584;288;15880;13048
584;288;15880;13228
584;288;15880;13400
584;288;15880;13572
584;288;15880;13744
568;320;15896;13916
568;320;15896;14088
568;320;15896;14268
568;320;15896;14440
568;320;15896;14612
568;320;15896;14784
516;316;15852;14956
516;316;15852;15128
516;316;15852;15304
516;316;15852;15476
516;316;15852;15648
516;316;15852;15820
492;224;15752;15992
492;224;15752;16168
492;224;15752;16344
492;224;15752;16516
492;224;15752;16688
452;220;15796;16860
452;220;15796;17032
452;220;15796;17204
452;220;15796;17384
452;220;15796;17556
452;220;15796;17728
444;284;15800;17900
444;284;15800;18072
444;284;15800;18244
444;284;15800;18424
444;284;15800;18596
444;284;15800;18768
480;296;15820;18940
480;296;15820;19112
480;296;15820;19284
480;296;15820;19460
480;296;15820;19636
480;296;15820;19808
532;288;15852;19980
532;288;15852;20152
532;288;15852;20324
532;288;15852;20500
532;288;15852;20672
540;280;15852;20844
540;280;15852;21016
540;280;15852;21188
540;280;15852;21364
540;280;15852;21540
540;280;15852;21712
536;304;15880;21884
536;304;15880;22056
536;304;15880;22228
536;304;15880;22408
536;304;15880;22580
536;304;15880;22752
552;312;15860;22924
552;312;15860;23096
552;312;15860;23268
552;312;15860;23448
552;312;15860;23620
552;312;15860;23792
548;264;15884;23964
548;264;15884;24136
548;264;15884;24308
548;264;15884;24484
548;264;15884;24656
524;248;15848;24832
524;248;15848;25004
524;248;15848;25176
524;248;15848;25348
524;248;15848;25524
524;248;15848;25696
516;288;15788;25868
516;288;15788;26040
516;288;15788;26212
516;288;15788;26384
516;288;15788;26564
516;288;15788;26736
528;296;15776;26908
528;296;15776;27080
528;296;15776;27252
528;296;15776;27424
528;296;15776;27604
528;296;15776;27776
540;292;15788;27948
540;292;15788;28120
540;292;15788;28292
540;292;15788;28464
540;292;15788;28644
540;292;15788;28816
536;308;15812;28988
536;308;15812;29160
536;308;15812;29332
536;308;15812;29504
536;308;15812;29680
540;320;15796;29852
540;320;15796;30028
540;320;15796;30200
540;320;15796;30372
540;320;15796;30544
540;320;15796;30720
544;312;15856;30892
544;312;15856;31064
544;312;15856;31236
544;312;15856;31408
544;312;15856;31580
544;312;15856;31760
524;276;15820;31932
524;276;15820;32104
524;276;15820;32276
524;276;15820;32448
524;276;15820;32620
524;276;15820;32800
548;268;15844;32972
548;268;15844;33144
548;268;15844;33316
548;268;15844;33488
548;268;15844;33660
568;284;15940;33840
568;284;15940;34012
568;284;15940;34184
568;284;15940;34356
568;284;15940;34528
568;284;15940;34704
516;316;15944;34876
516;316;15944;35048
516;316;15944;35220
516;316;15944;35396
516;316;15944;35568
516;316;15944;35744
504;304;15968;35916
504;304;15968;36088
504;304;15968;36260
504;304;15968;36432
504;304;15968;36604
504;304;15968;36784
500;248;15924;36956
500;248;15924;37128
500;248;15924;37300
500;248;15924;37472
500;248;15924;37644
468;240;15944;37824
468;240;15944;37996
468;240;15944;38168
468;240;15944;38340
468;240;15944;38512
468;240;15944;38684
488;260;15972;38864
488;260;15972;39036
488;260;15972;39208
488;260;15972;39380
488;260;15972;39552
488;260;15972;39724
524;228;15936;39900
524;228;15936;40072
524;228;15936;40244
524;228;15936;40416
524;228;15936;40592
524;228;15936;40764
556;248;15868;40940
556;248;15868;41112
556;248;15868;41284
556;248;15868;41456
556;248;15868;41628
556;248;15868;41800
592;308;15864;41980
592;308;15864;42152
592;308;15864;42324
592;308;15864;42496
592;308;15864;42668
588;284;15856;42840
588;284;15856;43020
588;284;15856;43192
588;284;15856;43364
588;284;15856;43536
588;284;15856;43708
596;252;15792;43880
596;252;15792;44060
596;252;15792;44232
596;252;15792;44404
596;252;15792;44576
596;252;15792;44748
580;244;15812;44920
580;244;15812;45096
580;244;15812;45268
580;244;15812;45440
580;244;15812;45616
580;244;15812;45788
528;236;15852;45964
528;236;15852;46136
528;236;15852;46308
528;236;15852;46480
528;236;15852;46652
536;240;15872;46824
536;240;15872;47004
536;240;15872;47176
536;240;15872;47348
536;240;15872;47520
536;240;15872;47692
540;284;15844;47864
540;284;15844;48044
540;284;15844;48216
540;284;15844;48388
540;284;15844;48560
540;284;15844;48732
496;264;15848;48904
496;264;15848;49084
496;264;15848;49256
496;264;15848;49428
496;264;15848;49600
496;264;15848;49772
496;244;15888;49944
496;244;15888;50120
496;244;15888;50292
496;244;15888;50464
496;244;15888;50636
496;244;15888;50812
540;256;15888;50984
540;256;15888;51160
540;256;15888;51332
540;256;15888;51504
540;256;15888;51676
528;240;15888;51848
528;240;15888;52020
528;240;15888;52200
528;240;15888;52372
528;240;15888;52544
528;240;15888;52716
496;296;15940;52888
496;296;15940;53060
496;296;15940;53240
496;296;15940;53412
496;296;15940;53584
496;296;15940;53756
512;284;15960;53928
512;284;15960;54100
512;284;15960;54280
512;284;15960;54452
512;284;15960;54624
512;284;15960;54796
524;288;15884;54968
524;288;15884;55140
524;288;15884;55316
524;288;15884;55488
524;288;15884;55660
524;344;15820;55832
524;344;15820;56008
524;344;15820;56180
524;344;15820;56356
524;344;15820;56528
524;344;15820;56700
496;328;15836;56872
496;328;15836;57044
496;328;15836;57224
496;328;15836;57396
496;328;15836;57568
496;328;15836;57740
472;280;15920;57912
472;280;15920;58084
472;280;15920;58264
472;280;15920;58436
472;280;15920;58608
472;280;15920;58780
520;220;15936;58952
520;220;15936;59124
520;220;15936;59300
520;220;15936;59476
520;220;15936;59648
576;216;15864;59820
576;216;15864;59992
576;216;15864;60164
576;216;15864;60340
576;216;15864;60512
576;216;15864;60684
548;252;15840;60856
548;252;15840;61028
548;252;15840;61200
548;252;15840;61380
548;252;15840;61552
548;252;15840;61724
540;288;15844;61896
540;288;15844;62068
540;288;15844;62240
540;288;15844;62420
540;288;15844;62592
540;288;15844;62764
544;340;15836;62936
544;340;15836;63108
544;340;15836;63280
544;340;15836;63460
544;340;15836;63632
544;340;15836;63804
500;324;15852;63976
500;324;15852;64148
500;324;15852;64320
500;324;15852;64496
500;324;15852;64668
516;288;15860;64844
516;288;15860;65016
516;288;15860;65188
516;288;15860;65360
516;288;15860;0
516;288;15860;172
548;320;15784;344
548;320;15784;516
548;320;15784;688
548;320;15784;860
548;320;15784;1040
548;320;15784;1212
492;336;15788;1384
492;336;15788;1556
492;336;15788;1728
492;336;15788;1900
492;336;15788;2080
492;336;15788;2252
460;268;15836;2424
460;268;15836;2596
460;268;15836;2768
460;268;15836;2940
460;268;15836;3120
508;248;15812;3292
508;248;15812;3464
508;248;15812;3636
508;248;15812;3808
508;248;15812;3984
508;248;15812;4156
528;276;15868;4328
528;276;15868;4504
528;276;15868;4676
528;276;15868;4848
528;276;15868;5024
528;276;15868;5196
548;272;15864;5368
548;272;15864;5540
548;272;15864;5712
548;272;15864;5884
548;272;15864;6064
548;272;15864;6236
548;276;15848;6408
548;276;15848;6580
548;276;15848;6752
548;276;15848;6924
548;276;15848;7104
560;300;15932;7276
560;300;15932;7448
560;300;15932;7620
560;300;15932;7792
560;300;15932;7964
560;300;15932;8144
544;312;15900;8316
544;312;15900;8488
544;312;15900;8660
544;312;15900;8832
544;312;15900;9004
544;312;15900;9180
544;284;15816;9352
544;284;15816;9524
544;284;15816;9700
544;284;15816;9872
544;284;15816;10044
544;284;15816;10220
528;284;15780;10392
528;284;15780;10564
528;284;15780;10736
528;284;15780;10908
528;284;15780;11080
532;288;15792;11260
532;288;15792;11432
532;288;15792;11604
532;288;15792;11776
532;288;15792;11948
532;288;15792;12120
544;316;15844;12300
544;316;15844;12472
544;316;15844;12644
544;316;15844;12816
544;316;15844;12988
544;316;15844;13160
496;344;15904;13340
496;344;15904;13512
496;344;15904;13684
496;344;15904;13856
496;344;15904;14028
496;344;15904;14200
516;308;15876;14376
516;308;15876;14548
516;308;15876;14720
516;308;15876;14892
516;308;15876;15068
516;308;15876;15244
508;292;15828;15416
508;292;15828;15588
508;292;15828;15760
508;292;15828;15932
508;292;15828;16104
492;296;15876;16284
492;296;15876;16456
492;296;15876;16628
492;296;15876;16800
492;296;15876;16972
492;296;15876;17144
488;292;15904;17324
488;292;15904;17496
488;292;15904;17668
488;292;15904;17840
488;292;15904;18012
488;292;15904;18184
460;296;15900;18364
460;296;15900;18536
460;296;15900;18708
460;296;15900;18880
460;296;15900;19052
460;296;15900;19224
496;300;15888;19400
496;300;15888;19572
496;300;15888;19744
496;300;15888;19920
496;300;15888;20092
544;296;15904;20264
544;296;15904;20440
544;296;15904;20612
544;296;15904;20784
544;296;15904;20956
544;296;15904;21128
560;256;15860;21300
560;256;15860;21480
560;256;15860;21652
560;256;15860;21824
560;256;15860;21996
560;256;15860;22168
536;244;15860;22340
536;244;15860;22520
536;244;15860;22692
536;244;15860;22864
536;244;15860;23036
536;244;15860;23208
488;260;15908;23380
488;260;15908;23560
488;260;15908;23732
488;260;15908;23904
488;260;15908;24076
488;260;15908;24248
492;276;15900;24420
492;276;15900;24596
492;276;15900;24768
492;276;15900;24940
492;276;15900;25112
500;320;15920;25288
500;320;15920;25460
500;320;15920;25636
500;320;15920;25808
500;320;15920;25980
500;320;15920;26152
472;356;15884;26324
472;356;15884;26504
472;356;15884;26676
472;356;15884;26848
472;356;15884;27020
472;356;15884;27192
500;324;15844;27364
500;324;15844;27544
500;324;15844;27716
500;324;15844;27888
500;324;15844;28060
500;324;15844;28232
540;304;15840;28404
540;304;15840;28580
540;304;15840;28756
540;304;15840;28928
540;304;15840;29100
516;344;15864;29272
516;344;15864;29444
516;344;15864;29620
516;344;15864;29792
516;344;15864;29964
516;344;15864;30136
480;336;15856;30308
480;336;15856;30484
480;336;15856;30660
480;336;15856;30832
480;336;15856;31004
480;336;15856;31176
480;300;15924;31348
480;300;15924;31520
480;300;15924;31700
480;300;15924;31872
480;300;15924;32044
480;300;15924;32216
520;284;16020;32388
520;284;16020;32560
520;284;16020;32740
520;284;16020;32912
520;284;16020;33084
512;284;15940;33256
512;284;15940;33428
512;284;15940;33600
512;284;15940;33776
512;284;15940;33948
512;284;15940;34124
508;284;15928;34296
508;284;15928;34468
508;284;15928;34640
508;284;15928;34816
508;284;15928;34988
508;284;15928;35160
524;296;15872;35332
524;296;15872;35504
524;296;15872;35676
524;296;15872;35856
524;296;15872;36028
524;296;15872;36200
500;312;15760;36372
500;312;15760;36544
500;312;15760;36716
500;312;15760;36896
500;312;15760;37068
500;312;15760;37240
532;260;15768;37412
532;260;15768;37584
532;260;15768;37756
532;260;15768;37936
532;260;15768;38108
580;284;15788;38280
580;284;15788;38452
580;284;15788;38624
580;284;15788;38800
580;284;15788;38972
580;284;15788;39144
556;308;15760;39316
556;308;15760;39492
556;308;15760;39664
556;308;15760;39840
556;308;15760;40012
556;308;15760;40184
508;316;15812;40356
508;316;15812;40528
508;316;15812;40700
508;316;15812;40880
508;316;15812;41052
508;316;15812;41224
504;300;15908;41396
504;300;15908;41568
504;300;15908;41740
504;300;15908;41920
504;300;15908;42092
532;252;15924;42264
532;252;15924;42436
532;252;15924;42608
532;252;15924;42780
532;252;15924;42960
532;252;15924;43132
500;252;15952;43304
500;252;15952;43476
500;252;15952;43648
500;252;15952;43820
500;252;15952;43996
500;252;15952;44168
480;240;15932;44340
480;240;15932;44512
480;240;15932;44688
480;240;15932;44860
480;240;15932;45036
480;240;15932;45208
512;236;15872;45380
512;236;15872;45552
512;236;15872;45724
512;236;15872;45896
512;236;15872;46076
524;292;15868;46248
524;292;15868;46420
524;292;15868;46592
524;292;15868;46764
524;292;15868;46936
524;292;15868;47116
524;344;15888;47288
524;344;15888;47460
524;344;15888;47632
524;344;15888;47804
524;344;15888;47976
524;344;15888;48156
468;264;15880;48328
468;264;15880;48500
468;264;15880;48672
468;264;15880;48844
468;264;15880;49016
468;264;15880;49192
408;232;15892;49364
408;232;15892;49536
408;232;15892;49708
408;232;15892;49884
408;232;15892;50060
408;232;15892;50232
448;280;15868;50404
448;280;15868;50576
448;280;15868;50748
448;280;15868;50920
448;280;15868;51100
524;304;15840;51272
524;304;15840;51444
524;304;15840;51616
524;304;15840;51788
524;304;15840;51960
524;304;15840;52140
576;296;15868;52312
576;296;15868;52484
576;296;15868;52656
576;296;15868;52828
576;296;15868;53000
576;296;15868;53176
564;288;15884;53352
564;288;15884;53524
564;288;15884;53696
564;288;15884;53868
564;288;15884;54040
564;288;15884;54216
544;312;15844;54388
544;312;15844;54560
544;312;15844;54732
544;312;15844;54904
544;312;15844;55076
560;296;15864;55256
560;296;15864;55428
560;296;15864;55600
560;296;15864;55772
560;296;15864;55944
560;296;15864;56116
552;228;15936;56296
552;228;15936;56468
552;228;15936;56640
552;228;15936;56812
552;228;15936;56984
552;228;15936;57156
512;228;15824;57336
512;228;15824;57508
512;228;15824;57680
512;228;15824;57852
512;228;15824;58024
512;228;15824;58196
508;264;15760;58372
508;264;15760;58544
508;264;15760;58720
508;264;15760;58892
508;264;15760;59064
528;264;15808;59236
528;264;15808;59412
528;264;15808;59584
528;264;15808;59756
528;264;15808;59928
528;264;15808;60100
528;276;15824;60272
528;276;15824;60452
528;276;15824;60624
528;276;15824;60796
528;276;15824;60968
528;276;15824;61140
560;296;15832;61320
560;296;15832;61492
560;296;15832;61664
560;296;15832;61836
560;296;15832;62008
560;296;15832;62180
580;296;15848;62360
580;296;15848;62532
580;296;15848;62704
580;296;15848;62876
580;296;15848;63048
580;296;15848;63220
564;272;15856;63396
564;272;15856;63572
564;272;15856;63744
564;272;15856;63916
564;272;15856;64088
548;212;15836;64260
548;212;15836;64436
548;212;15836;64608
548;212;15836;64780
548;212;15836;64952
548;212;15836;65124
576;252;15828;65296
576;252;15828;65476
576;252;15828;112
576;252;15828;284
576;252;15828;456
576;252;15828;628
584;316;15836;800
584;316;15836;980
584;316;15836;1152
584;316;15836;1324
584;316;15836;1496
584;316;15836;1668
576;280;15816;1840
576;280;15816;2020
576;280;15816;2192
576;280;15816;2364
576;280;15816;2536
576;272;15792;2708
576;272;15792;2880
576;272;15792;3056
576;272;15792;3228
576;272;15792;3404
576;272;15792;3576
536;284;15800;3748
536;284;15800;3920
536;284;15800;4096
536;284;15800;4268
536;284;15800;4440
536;284;15800;4612
484;264;15812;4784
484;264;15812;4956
484;264;988;0
0;0;0;0
484;264;15812;5308
484;264;15812;5480
484;264;15812;5652
464;284;15856;5824
464;284;15856;5996
464;284;15856;6176
464;284;15856;6348
464;284;15856;6520
488;296;15892;6692
488;296;15892;6864
488;296;15892;7036
488;296;15892;7216
488;296;15892;7388
488;296;15892;7560
588;320;15808;7732
588;320;15808;7904
588;320;15808;8080
588;320;15808;8252
588;320;15808;8424
588;320;15808;8600
600;324;15812;8772
600;324;15812;8944
600;324;15812;9120
600;324;15812;9292
600;324;15812;9464
600;324;15812;9636
524;276;15816;9808
524;276;15816;9980
524;276;15816;10160
524;276;15816;10332
524;276;15816;10504
524;276;15816;10676
540;256;15860;10848
540;256;15860;11020
540;256;15860;11200
540;256;15860;11372
540;256;15860;11544
580;240;15904;11716
580;240;15904;11888
580;240;15904;12060
580;240;15904;12240
580;240;15904;12412
580;240;15904;12584
540;244;15856;12756
540;244;15856;12928
540;244;15856;13100
540;244;15856;13276
540;244;15856;13448
540;244;15856;13620
488;260;15916;13796
488;260;15916;13968
488;260;15916;14140
488;260;15916;14316
488;260;15916;14488
488;260;15916;14660
532;264;15892;14832
532;264;15892;15004
532;264;15892;15176
532;264;15892;15356
532;264;15892;15528
584;248;15796;15700
584;248;15796;15872
584;248;15796;16044
584;248;15796;16216
584;248;15796;16396
584;248;15796;16568
568;260;15740;16740
568;260;15740;16912
568;260;15740;17084
568;260;15740;17256
568;260;15740;17436
568;260;15740;17608
532;280;15784;17780
532;280;15784;17952
532;280;15784;18124
532;280;15784;18296
532;280;15784;18472
532;280;15784;18644
552;280;15876;18816
552;280;15876;18988
552;280;15876;19164
552;280;15876;19340
552;280;15876;19512
548;312;15936;19684
548;312;15936;19856
548;312;15936;20028
548;312;15936;20200
548;312;15936;20380
548;312;15936;20552
528;304;15964;20724
528;304;15964;20896
528;304;15964;21068
528;304;15964;21240
528;304;15964;21420
528;304;15964;21592
548;268;15932;21764
548;268;15932;21936
548;268;15932;22108
548;268;15932;22280
548;268;15932;22456
548;268;15932;22632
556;312;15836;22804
556;312;15836;22976
556;312;15836;23148
556;312;15836;23320
556;312;15836;23496
556;312;15836;23668
560;324;15856;23840
560;324;15856;24012
560;324;15856;24184
560;324;15856;24360
560;324;15856;24536
548;272;15876;24708
548;272;15876;24880
548;272;15876;25052
548;272;15876;25224
548;272;15876;25396
548;272;15876;25576
580;296;15852;25748
580;296;15852;25920
580;296;15852;26092
580;296;15852;26264
580;296;15852;26436
580;296;15852;26616
572;308;15924;26788
572;308;15924;26960
572;308;15924;27132
572;308;15924;27304
572;308;15924;27476
572;308;15924;27652
516;280;15920;27828
516;280;15920;28000
516;280;15920;28172
516;280;15920;28344
516;280;15920;28516
504;296;15924;28692
504;296;15924;28864
504;296;15924;29036
504;296;15924;29208
504;296;15924;29380
504;296;15924;29556
504;280;15920;29732
504;280;15920;29904
504;280;15920;30076
504;280;15920;30248
504;280;15920;30420
504;280;15920;30600
520;288;15832;30772
520;288;15832;30944
520;288;15832;31116
520;288;15832;31288
520;288;15832;31460
520;288;15832;31640
532;312;15804;31812
532;312;15804;31984
532;312;15804;32156
532;312;15804;32328
532;312;15804;32500
516;300;15876;32676
516;300;15876;32848
516;300;15876;33024
516;300;15876;33196
516;300;15876;33368
516;300;15876;33540
500;276;15988;33716
500;276;15988;33888
500;276;15988;34060
500;276;15988;34232
500;276;15988;34404
500;276;15988;34576
528;268;15816;34756
528;268;15816;34928
528;268;15816;35100
528;268;15816;35272
528;268;15816;35444
528;268;15816;35616
548;272;15788;35796
548;272;15788;35968
548;272;15788;36140
548;272;15788;36312
548;272;15788;36484
560;272;15940;36656
560;272;15940;36836
560;272;15940;37008
560;272;15940;37180
560;272;15940;37352
560;272;15940;37524
552;280;15900;37696
552;280;15900;37872
552;280;15900;38048
552;280;15900;38220
552;280;15900;38392
552;280;15900;38564
552;296;15908;38736
552;296;15908;38912
552;296;15908;39084
552;296;15908;39256
552;296;15908;39428
552;296;15908;39600
536;304;15856;39776
536;304;15856;39952
536;304;15856;40124
536;304;15856;40296
536;304;15856;40468
536;304;15856;40640
480;300;15852;40812
480;300;15852;40992
480;300;15852;41164
480;300;15852;41336
480;300;15852;41508
532;288;15896;41680
532;288;15896;41852
532;288;15896;42032
532;288;15896;42204
532;288;15896;42376
532;288;15896;42548
544;284;15928;42720
544;284;15928;42896
544;284;15928;43068
544;284;15928;43244
544;284;15928;43416
544;284;15928;43588
496;316;15964;43760
496;316;15964;43936
496;316;15964;44108
496;316;15964;44280
496;316;15964;44452
496;316;15964;44624
512;272;15852;44796
512;272;15852;44976
512;272;15852;45148
512;272;15852;45320
512;272;15852;45492
512;244;15828;45664
512;244;15828;45836
512;244;15828;46016
512;244;15828;46188
512;244;15828;46360
512;244;15828;46532
504;288;15872;46704
504;288;15872;46876
504;288;15872;47056
504;288;15872;47228
504;288;15872;47400
504;288;15872;47572
520;320;15908;47744
520;320;15908;47916
520;320;15908;48092
520;320;15908;48264
520;320;15908;48436
520;320;15908;48612
572;300;15924;48784
572;300;15924;48956
572;300;15924;49132
572;300;15924;49304
572;300;15924;49476
572;300;15924;49648
576;272;15864;49820
576;272;15864;49992
576;272;15864;50172
576;272;15864;50344
576;272;15864;50516
560;340;15848;50688
560;340;15848;50860
560;340;15848;51032
560;340;15848;51212
560;340;15848;51384
560;340;15848;51556
552;340;15820;51728
552;340;15820;51900
552;340;15820;52072
552;340;15820;52252
552;340;15820;52424
552;340;15820;52596
504;288;15808;52768
504;288;15808;52940
504;288;15808;53112
504;288;15808;53288
504;288;15808;53460
504;288;15808;53632
476;288;15872;53808
476;288;15872;53980
476;288;15872;54156
476;288;15872;54328
476;288;15872;54500
524;276;15960;54672
524;276;15960;54844
524;276;15960;55016
524;276;15960;55196
524;276;15960;55368
524;276;15960;55540
520;304;15948;55712
520;304;15948;55884
520;304;15948;56056
520;304;15948;56236
520;304;15948;56408
520;304;15948;56580
516;340;15912;56752
516;340;15912;56924
516;340;15912;57096
516;340;15912;57276
516;340;15912;57448
516;340;15912;57620
532;280;15904;57792
532;280;15904;57964
532;280;15904;58136
532;280;15904;58312
532;280;15904;58484
480;248;15936;58656
480;248;15936;58828
480;248;15936;59004
480;248;15936;59176
480;248;15936;59352
480;248;15936;59524
468;256;15892;59696
468;256;15892;59868
468;256;15892;60040
468;256;15892;60212
468;256;15892;60392
468;256;15892;60564
520;272;15800;60736
520;272;15800;60908
520;272;15800;61080
520;272;15800;61252
520;272;15800;61432
520;272;15800;61604
512;284;15832;61776
512;284;15832;61948
512;284;15832;62120
512;284;15832;62292
512;284;15832;62472
512;284;15832;62644
496;288;15880;62816
496;288;15880;62988
496;288;15880;63160
496;288;15880;63332
496;288;15880;63508
532;304;15940;63680
532;304;15940;63852
532;304;15940;64024
532;304;15940;64196
532;304;15940;64372
532;304;15940;64548
524;276;15932;64720
524;276;15932;64892
524;276;15932;65064
524;276;15932;65236
524;276;15932;65416
524;276;15932;52
504;312;15908;224
504;312;15908;396
504;312;15908;568
504;312;15908;740
504;312;15908;920
504;312;15908;1092
500;316;15880;1264
500;316;15880;1436
500;316;15880;1608
500;316;15880;1780
500;316;15880;1956
520;300;15888;2128
520;300;15888;2304
520;300;15888;2476
520;300;15888;2648
520;300;15888;2820
520;300;15888;2996
540;348;15888;3168
540;348;15888;3340
540;348;15888;3512
540;348;15888;3684
540;348;15888;3856
540;348;15888;4036
524;280;15924;4208
524;280;15924;4380
524;280;15924;4552
524;280;15924;4724
524;280;15924;4896
524;280;15924;5076
484;228;15892;5248
484;228;15892;5420
484;228;15892;5592
484;228;15892;5764
484;228;15892;5936
460;276;15724;6116
460;276;15724;6288
460;276;15724;6460
460;276;15724;6632
460;276;15724;6804
460;276;15724;6976
532;284;15736;7152
532;284;15736;7324
532;284;15736;7500
532;284;15736;7672
532;284;15736;7844
532;284;15736;8016
540;288;15764;8192
540;288;15764;8364
540;288;15764;8536
540;288;15764;8708
540;288;15764;8880
540;288;15764;9052
480;256;15876;9232
480;256;15876;9404
480;256;15876;9576
480;256;15876;9748
480;256;15876;9920
480;256;15876;10092
524;268;15944;10272
524;268;15944;10444
524;268;15944;10616
524;268;15944;10788
524;268;15944;10960
520;332;15904;11132
520;332;15904;11312
520;332;15904;11484
520;332;15904;11656
520;332;15904;11828
520;332;15904;12000
528;288;15936;12176
528;288;15936;12348
528;288;15936;12520
528;288;15936;12696
528;288;15936;12868
528;288;15936;13040
548;260;15912;13216
548;260;15912;13388
548;260;15912;13560
548;260;15912;13732
548;260;15912;13904
548;260;15912;14076
544;288;15832;14256
544;288;15832;14428
544;288;15832;14600
544;288;15832;14772
544;288;15832;14944
548;288;15764;15116
548;288;15764;15296
548;288;15764;15468
548;288;15764;15640
548;288;15764;15812
548;288;15764;15984
512;296;15820;16156
512;296;15820;16336
512;296;15820;16508
512;296;15820;16680
512;296;15820;16852
512;296;15820;17024
496;296;15856;17196
496;296;15856;17372
496;296;15856;17544
496;296;15856;17720
496;296;15856;17892
496;296;15856;18064
492;288;15792;18236
492;288;15792;18412
492;288;15792;18584
492;288;15792;18756
492;288;15792;18928
512;292;15804;19100
512;292;15804;19272
512;292;15804;19452
512;292;15804;19624
512;292;15804;19796
512;292;15804;19968
532;304;15816;20140
532;304;15816;20312
532;304;15816;20492
532;304;15816;20664
532;304;15816;20836
532;304;15816;21008
512;316;15844;21180
512;316;15844;21352
512;316;15844;21532
512;316;15844;21704
512;316;15844;21876
512;316;15844;22048
504;312;15900;22220
504;312;15900;22392
504;312;15900;22568
504;312;15900;22740
504;312;15900;22916
504;312;15900;23088
512;324;15896;23260
512;324;15896;23436
512;324;15896;23608
512;324;15896;23780
512;324;15896;23952
492;280;15852;24124
492;280;15852;24296
492;280;15852;24476
492;280;15852;24648
492;280;15852;24820
492;280;15852;24992
476;252;15864;25164
476;252;15864;25336
476;252;15864;25516
476;252;15864;25688
476;252;15864;25860
476;252;15864;26032
508;304;15912;26204
508;304;15912;26376
508;304;15912;26556
508;304;15912;26728
508;304;15912;26900
508;304;15912;27072
516;352;15920;27244
516;352;15920;27416
516;352;15920;27592
516;352;15920;27764
516;352;15920;27936
508;328;15940;28108
508;328;15940;28284
508;328;15940;28456
508;328;15940;28632
508;328;15940;28804
508;328;15940;28976
512;280;15952;29148
512;280;15952;29320
512;280;15952;29492
512;280;15952;29672
512;280;15952;29844
512;280;15952;30016
520;288;15896;30188
520;288;15896;30360
520;288;15896;30532
520;288;15896;30712
520;288;15896;30884
520;288;15896;31056
512;292;15892;31228
512;292;15892;31400
512;292;15892;31572
512;292;15892;31752
512;292;15892;31924
484;268;15896;32096
484;268;15896;32268
484;268;15896;32440
484;268;15896;32612
484;268;15896;32788
484;268;15896;32960
460;300;15816;33132
460;300;15816;33304
460;300;15816;33480
460;300;15816;33652
460;300;15816;33828
460;300;15816;34000
540;324;15892;34172
540;324;15892;34344
540;324;15892;34516
540;324;15892;34696
540;324;15892;34868
540;324;15892;35040
544;312;15956;35212
544;312;15956;35384
544;312;15956;35556
544;312;15956;35736
544;312;15956;35908
544;312;15956;36080
460;272;15864;36252
460;272;15864;36424
460;272;15864;36596
460;272;15864;36772
460;272;15864;36948
468;224;15796;37120
468;224;15796;37292
468;224;15796;37464
468;224;15796;37636
468;224;15796;37812
468;224;15796;37984
504;264;15844;38156
504;264;15844;38328
504;264;15844;38500
504;264;15844;38676
504;264;15844;38852
504;264;15844;39024
540;276;15892;39196
540;276;15892;39368
540;276;15892;39540
540;276;15892;39712
540;276;15892;39892
540;276;15892;40064
520;284;15888;40236
520;284;15888;40408
520;284;15888;40580
520;284;15888;40752
520;284;15888;40932
520;292;15956;41104
520;292;15956;41276
520;292;15956;41448
520;292;15956;41620
520;292;15956;41792
520;292;15956;41968
528;284;15948;42140
528;284;15948;42312
528;284;15948;42488
528;284;15948;42660
528;284;15948;42832
528;284;15948;43008
504;320;15852;43180
504;320;15852;43352
504;320;15852;43524
504;320;15852;43696
504;320;15852;43868
504;320;15852;44048
528;312;15864;44220
528;312;15864;44392
528;312;15864;44564
528;312;15864;44736
528;312;15864;44908
564;324;15884;45088
564;324;15884;45260
564;324;15884;45432
564;324;15884;45604
564;324;15884;45776
564;324;15884;45948
544;328;15868;46128
544;328;15868;46300
544;328;15868;46472
544;328;15868;46644
544;328;15868;46816
544;328;15868;46992
564;292;15888;47164
564;292;15888;47336
564;292;15888;47508
564;292;15888;47684
564;292;15888;47856
564;292;15888;48032
528;280;15948;48204
528;280;15948;48376
528;280;15948;48548
528;280;15948;48720
528;280;15948;48892
528;280;15948;49072
496;284;15936;49244
496;284;15936;49416
496;284;15936;49588
496;284;15936;49760
496;284;15936;49932
532;256;15824;50112
532;256;15824;50284
532;256;15824;50456
532;256;15824;50628
532;256;15824;50800
532;256;15824;50972
532;256;15816;51152
532;256;15816;51324
532;256;15816;51496
532;256;15816;51668
532;256;15816;51840
532;256;15816;52012
492;284;15872;52188
492;284;15872;52360
492;284;15872;52532
492;284;15872;52704
492;284;15872;52880
492;284;15872;53052
464;292;15924;53228
464;292;15924;53400
464;292;15924;53572
464;292;15924;53744
464;292;15924;53916
496;308;15948;54088
496;308;15948;54268
496;308;15948;54440
496;308;15948;54612
496;308;15948;54784
496;308;15948;54956
520;316;15884;55128
520;316;15884;55308
520;316;15884;55480
520;316;15884;55652
520;316;15884;55824
520;316;15884;55996
548;296;15812;56168
548;296;15812;56348
548;296;15812;56520
548;296;15812;56692
548;296;15812;56864
548;296;15812;57036
560;256;15852;57208
560;256;15852;57384
560;256;15852;57556
560;256;15852;57728
560;256;15852;57904
532;252;15864;58076
532;252;15864;58252
532;252;15864;58424
532;252;15864;58596
532;252;15864;58768
532;252;15864;58940
468;248;15936;59112
468;248;15936;59292
468;248;15936;59464
468;248;15936;59636
468;248;15936;59808
468;248;15936;59980
440;268;15992;60152
440;268;15992;60332
440;268;15992;60504
440;268;15992;60676
440;268;15992;60848
440;268;15992;61020
440;292;15964;61192
440;292;15964;61372
440;292;15964;61544
440;292;15964;61716
440;292;15964;61888
440;292;15964;62060
468;316;15908;62232
468;316;15908;62408
468;316;15908;62580
468;316;15908;62752
468;316;15908;62924
484;340;15784;63100
484;340;15784;63272
484;340;15784;63448
484;340;15784;63620
484;340;15784;63792
484;340;15784;63964
480;300;15772;64136
480;300;15772;64308
480;300;15772;64488
480;300;15772;64660
480;300;15772;64832
480;300;15772;65004
520;288;15804;65176
520;288;15804;65348
520;288;15804;65528
520;288;15804;164
520;288;15804;336
520;288;15804;508
484;336;15836;680
484;336;15836;852
484;336;15836;1032
484;336;15836;1204
484;336;15836;1376
436;344;15880;1548
436;344;15880;1720
436;344;15880;1892
436;344;15880;2068
436;344;15880;2240
436;344;15880;2412
516;324;15940;2584
516;324;15940;2756
516;324;15940;2932
516;324;15940;3108
516;324;15940;3280
516;324;15940;3452
568;320;15900;3624
568;320;15900;3796
568;320;15900;3976
568;320;15900;4148
568;320;15900;4320
568;320;15900;4492
528;304;15812;4664
528;304;15812;4836
528;304;15812;5016
528;304;15812;5188
528;304;15812;5360
504;316;15848;5532
504;316;15848;5704
504;316;15848;5876
504;316;15848;6052
504;316;15848;6224
504;316;15848;6400
488;320;15932;6572
488;320;15932;6744
488;320;15932;6916
488;320;15932;7092
488;320;15932;7264
488;320;15932;7436
496;288;15968;7608
496;288;15968;7780
496;288;15968;7952
496;288;15968;8132
496;288;15968;8304
496;288;15968;8476
508;320;15956;8648
508;320;15956;8820
508;320;15956;8992
508;320;15956;9172
508;320;15956;9344
508;320;15956;9516
548;328;15928;9688
548;328;15928;9860
548;328;15928;10032
548;328;15928;10212
548;328;15928;10384
548;316;15796;10556
548;316;15796;10728
548;316;15796;10900
548;316;15796;11072
548;316;15796;11248
548;316;15796;11420
516;332;15732;11596
516;332;15732;11768
516;332;15732;11940
516;332;15732;12112
516;332;15732;12288
516;332;15732;12460
540;248;15844;12632
540;248;15844;12804
540;248;15844;12976
540;248;15844;13148
540;248;15844;13328
540;248;15844;13500
524;244;15820;13672
524;244;15820;13844
524;244;15820;14016
524;244;15820;14188
524;244;15820;14368
504;340;15788;14540
504;340;15788;14712
504;340;15788;14884
504;340;15788;15056
504;340;15788;15228
504;340;15788;15408
488;308;15856;15580
488;308;15856;15752
488;308;15856;15924
488;308;15856;16096
488;308;15856;16272
488;308;15856;16444
436;252;15904;16616
436;252;15904;16792
436;252;15904;16964
436;252;15904;17136
436;252;15904;17312
436;252;15904;17484
508;304;15936;17656
508;304;15936;17828
508;304;15936;18000
508;304;15936;18172
508;304;15936;18352
580;304;15908;18524
580;304;15908;18696
580;304;15908;18868
580;304;15908;19040
580;304;15908;19212
580;304;15908;19392
540;304;15876;19564
540;304;15876;19736
540;304;15876;19908
540;304;15876;20080
540;304;15876;20252
540;304;15876;20432
516;308;15872;20604
516;308;15872;20776
516;308;15872;20948
516;308;15872;21120
516;308;15872;21292
516;308;15872;21468
524;260;15916;21640
524;260;15916;21812
524;260;15916;21984
524;260;15916;22160
524;260;15916;22332
524;260;15916;22508
580;284;15932;22680
580;284;15932;22852
580;284;15932;23024
580;284;15932;23196
580;284;15932;23368
588;304;15908;23548
588;304;15908;23720
588;304;15908;23892
588;304;15908;24064
588;304;15908;24236
588;304;15908;24408
568;316;15892;24588
568;316;15892;24760
568;316;15892;24932
568;316;15892;25104
568;316;15892;25276
568;316;15892;25448
576;276;15896;25628
576;276;15896;25800
576;276;15896;25972
576;276;15896;26144
576;276;15896;26316
576;276;15896;26488
532;296;15864;26664
532;296;15864;26836
532;296;15864;27008
532;296;15864;27180
532;296;15864;27356
520;332;15848;27532
520;332;15848;27704
520;332;15848;27876
520;332;15848;28048
520;332;15848;28220
520;332;15848;28392
532;296;15884;28572
532;296;15884;28744
532;296;15884;28916
532;296;15884;29088
532;296;15884;29260
532;296;15884;29432
524;268;15856;29612
524;268;15856;29784
524;268;15856;29956
524;268;15856;30128
524;268;15856;30300
524;268;15856;30472
544;272;15880;30648
544;272;15880;30824
544;272;15880;30996
544;272;15880;31168
544;272;15880;31340
576;308;15904;31512
576;308;15904;31688
576;308;15904;31860
576;308;15904;32032
576;308;15904;32204
576;308;15904;32376
596;276;15852;32552
596;276;15852;32728
596;276;15852;32900
596;276;15852;33072
596;276;15852;33244
596;276;15852;33416
540;264;15916;33588
540;264;15916;33768
540;264;15916;33940
540;264;15916;34112
540;264;15916;34284
540;264;15916;34456
492;304;15992;34628
492;304;15992;34808
492;304;15992;34980
492;304;15992;35152
492;304;15992;35324
492;304;15992;35496
528;284;15952;35668
528;284;15952;35848
528;284;15952;36020
528;284;15952;36192
528;284;15952;36364
536;304;15872;36536
536;304;15872;36708
536;304;15872;36884
536;304;15872;37056
536;304;15872;37228
536;304;15872;37400
544;348;15912;37576
544;348;15912;37748
544;348;15912;37924
544;348;15912;38096
544;348;15912;38268
544;348;15912;38440
568;316;15884;38612
568;316;15884;38792
568;316;15884;38964
568;316;15884;39136
568;316;15884;39308
568;316;15884;39480
500;280;15816;39652
500;280;15816;39832
500;280;15816;40004
500;280;15816;40176
500;280;15816;40348
432;296;15820;40520
432;296;15820;40692
432;296;15820;40868
432;296;15820;41044
432;296;15820;41216
432;296;15820;41388
480;328;15724;41560
480;328;15724;41732
480;328;15724;41908
480;328;15724;42080
480;328;15724;42252
480;328;15724;42424
548;348;15784;42596
548;348;15784;42772
548;348;15784;42948
548;348;15784;43120
548;348;15784;43292
548;348;15784;43464
540;372;15896;43636
540;372;15896;43808
540;372;15896;43988
540;372;15896;44160
540;372;15896;44332
532;356;15884;44504
532;356;15884;44676
532;356;15884;44848
532;356;15884;45028
532;356;15884;45200
532;356;15884;45372
556;272;15868;45544
556;272;15868;45716
556;272;15868;45888
556;272;15868;46064
556;272;15868;46236
556;272;15868;46408
568;248;15896;46584
568;248;15896;46756
568;248;15896;46928
568;248;15896;47104
568;248;15896;47276
568;248;15896;47448
552;228;15900;47620
552;228;15900;47792
552;228;15900;47964
552;228;15900;48144
552;228;15900;48316
552;228;15900;48488
504;252;15880;48660
504;252;15880;48832
504;252;15880;49004
504;252;15880;49184
504;252;15880;49356
496;288;15952;49528
496;288;15952;49700
496;288;15952;49872
496;288;15952;50044
496;288;15952;50224
496;288;15952;50396
516;288;15920;50568
516;288;15920;50740
516;288;15920;50912
516;288;15920;51088
516;288;15920;51260
516;288;15920;51432
544;336;15844;51604
544;336;15844;51780
544;336;15844;51952
544;336;15844;52128
544;336;15844;52300
544;336;15844;52472
532;292;15828;52644
532;292;15828;52816
532;292;15828;52988
532;292;15828;53168
532;292;15828;53340
484;236;15804;53512
484;236;15804;53684
484;236;15804;53856
484;236;15804;54028
484;236;15804;54208
484;236;15804;54380
452;272;15832;54552
452;272;15832;54724
452;272;15832;54896
452;272;15832;55068
452;272;15832;55248
452;272;15832;55420
468;316;15876;55592
468;316;15876;55764
468;316;15876;55936
468;316;15876;56108
468;316;15876;56284
468;316;15876;56456
504;316;15888;56628
504;316;15888;56800
504;316;15888;56976
504;316;15888;57148
504;316;15888;57324
536;304;15868;57496
536;304;15868;57668
536;304;15868;57840
536;304;15868;58012
536;304;15868;58184
536;304;15868;58364
588;320;15880;58536
588;320;15880;58708
588;320;15880;58880
588;320;15880;59052
588;320;15880;59224
588;320;15880;59404
564;312;15812;59576
564;312;15812;59748
564;312;15812;59920
564;312;15812;60092
564;312;15812;60264
564;312;15812;60444
520;300;15784;60616
520;300;15784;60788
520;300;15784;60960
520;300;15784;61132
520;300;15784;61304
520;300;15784;61480
548;332;15880;61652
548;332;15880;61824
548;332;15880;61996
548;332;15880;62168
548;332;15880;62348
560;336;15880;62520
560;336;15880;62692
560;336;15880;62864
560;336;15880;63036
560;336;15880;63208
560;336;15880;63388
544;324;15876;63560
544;324;15876;63732
544;324;15876;63904
544;324;15876;64076
544;324;15876;64248
544;324;15876;64428
536;300;15880;64600
536;300;15880;64772
536;300;15880;64944
536;300;15880;65116
536;300;15880;65288
536;300;15880;65464
532;296;15820;100
532;296;15820;276
532;296;15820;448
532;296;15820;620
532;296;15820;792
564;348;15856;968
564;348;15856;1140
564;348;15856;1312
564;348;15856;1484
564;348;15856;1656
564;348;15856;1828
520;332;15892;2008
520;332;15892;2180
520;332;15892;2352
520;332;15892;2524
520;332;15892;2696
520;332;15892;2868
500;292;15840;3048
500;292;15840;3220
500;292;15840;3392
500;292;15840;3564
500;292;15840;3736
500;292;15840;3908
564;244;15892;4088
564;244;15892;4260
564;244;15892;4432
564;244;15892;4604
564;244;15892;4776
564;232;15920;4948
564;232;15920;5124
564;232;15920;5296
564;232;15920;5472
564;232;15920;5644
564;232;15920;5816
552;296;15912;5988
552;296;15912;6164
552;296;15912;6336
552;296;15912;6508
552;296;15912;6680
552;296;15912;6852
556;308;15980;7024
556;308;15980;7204
556;308;15980;7376
556;308;15980;7548
556;308;15980;7720
556;308;15980;7892
528;296;15928;8072
528;296;15928;8244
528;296;15928;8416
528;296;15928;8588
528;296;15928;8760
528;296;15928;8932
512;272;15888;9112
512;272;15888;9284
512;272;15888;9456
512;272;15888;9628
512;272;15888;9800
536;248;15912;9972
536;248;15912;10148
536;248;15912;10320
536;248;15912;10492
536;248;15912;10668
536;248;15912;10840
508;256;15876;11012
508;256;15876;11188
508;256;15876;11360
508;256;15876;11532
508;256;15876;11704
508;256;15876;11876
508;280;15808;12048
508;280;15808;12228
508;280;15808;12400
508;280;15808;12572
508;280;15808;12744
508;280;15808;12916
548;248;15816;13088
548;248;15816;13268
548;248;15816;13440
548;248;15816;13612
548;248;15816;13784
552;228;15960;13956
552;228;15960;14128
552;228;15960;14308
552;228;15960;14480
552;228;15960;14652
552;228;15960;14824
548;312;15976;14996
548;312;15976;15168
548;312;15976;15344
548;312;15976;15516
548;312;15976;15692
548;312;15976;15864
524;356;15932;16036
524;356;15932;16208
524;356;15932;16384
524;356;15932;16556
524;356;15932;16728
524;356;15932;16900
476;332;16000;17072
476;332;16000;17244
476;332;16000;17424
476;332;16000;17596
476;332;16000;17768
512;292;15944;17940
512;292;15944;18112
512;292;15944;18284
512;292;15944;18464
512;292;15944;18636
512;292;15944;18808
512;316;15832;18980
512;316;15832;19152
512;316;15832;19324
512;316;15832;19504
512;316;15832;19676
512;316;15832;19848
508;328;15784;20020
508;328;15784;20192
508;328;15784;20368
508;328;15784;20540
508;328;15784;20712
508;328;15784;20888
528;324;15808;21060
528;324;15808;21232
528;324;15808;21408
528;324;15808;21580
528;324;15808;21752
528;324;15808;21924
472;344;15844;22096
472;344;15844;22268
472;344;15844;22448
472;344;15844;22620
472;344;15844;22792
504;372;15840;22964
504;372;15840;23136
504;372;15840;23308
504;372;15840;23488
504;372;15840;23660
504;372;15840;23832
524;344;15860;24004
524;344;15860;24176
524;344;15860;24348
524;344;15860;24528
524;344;15860;24700
524;344;15860;24872
504;264;15868;25044
504;264;15868;25216
504;264;15868;25388
504;264;15868;25564
504;264;15868;25736
504;264;15868;25908
544;276;15824;26080
544;276;15824;26256
544;276;15824;26428
544;276;15824;26604
544;276;15824;26776
528;276;15784;26948
528;276;15784;27120
528;276;15784;27292
528;276;15784;27464
528;276;15784;27644
528;276;15784;27816
496;232;15824;27988
496;232;15824;28160
496;232;15824;28332
496;232;15824;28504
496;232;15824;28684
496;232;15824;28856
504;232;15896;29028
504;232;15896;29200
504;232;15896;29372
504;232;15896;29544
504;232;15896;29724
504;232;15896;29896
520;284;15856;30068
520;284;15856;30240
520;284;15856;30412
520;284;15856;30584
520;284;15856;30760
524;304;15856;30932
524;304;15856;31104
524;304;15856;31276
524;304;15856;31452
524;304;15856;31628
524;304;15856;31800
504;304;15956;31972
504;304;15956;32144
504;304;15956;32316
504;304;15956;32488
504;304;15956;32668
504;304;15956;32840
536;300;16028;33012
536;300;16028;33184
536;300;16028;33356
536;300;16028;33528
536;300;16028;33708
536;300;16028;33880
556;288;15984;34052
556;288;15984;34224
556;288;15984;34396
556;288;15984;34568
556;288;15984;34744
556;288;15984;34920
512;276;15932;35092
512;276;15932;35264
512;276;15932;35436
512;276;15932;35608
512;276;15932;35784
524;248;15944;35956
524;248;15944;36128
524;248;15944;36300
524;248;15944;36472
524;248;15944;36648
524;248;15944;36824
524;228;15828;36996
524;228;15828;37168
524;228;15828;37340
524;228;15828;37512
524;228;15828;37684
524;228;15828;37864
496;284;15768;38036
496;284;15768;38208
496;284;15768;38380
496;284;15768;38552
496;284;15768;38724
496;284;15768;38904
500;288;15864;39076
500;288;15864;39248
500;288;15864;39420
500;288;15864;39592
500;288;15864;39764
516;268;15872;39940
516;268;15872;40116
516;268;15872;40288
516;268;15872;40460
516;268;15872;40632
516;268;15872;40804
524;336;15860;40980
524;336;15860;41152
524;336;15860;41324
524;336;15860;41496
524;336;15860;41668
524;336;15860;41840
496;312;15924;42020
496;312;15924;42192
496;312;15924;42364
496;312;15924;42536
496;312;15924;42708
496;312;15924;42888
524;304;15852;43060
524;304;15852;43232
524;304;15852;43404
524;304;15852;43576
524;304;15852;43748
516;328;15776;43928
516;328;15776;44100
516;328;15776;44272
516;328;15776;44444
516;328;15776;44616
516;328;15776;44788
480;276;15868;44964
480;276;15868;45136
480;276;15868;45308
480;276;15868;45484
480;276;15868;45656
480;276;15868;45828
516;292;15896;46004
516;292;15896;46176
516;292;15896;46348
516;292;15896;46520
516;292;15896;46692
516;292;15896;46864
540;352;15892;47044
540;352;15892;47216
540;352;15892;47388
540;352;15892;47560
540;352;15892;47732
540;352;15892;47904
540;316;15940;48084
540;316;15940;48256
540;316;15940;48428
540;316;15940;48600
540;316;15940;48772
564;260;15912;48944
564;260;15912;49124
564;260;15912;49296
564;260;15912;49468
564;260;15912;49640
564;260;15912;49812
560;260;15780;49984
560;260;15780;50160
560;260;15780;50332
560;260;15780;50504
560;260;15780;50680
560;260;15780;50852
532;268;15780;51024
532;268;15780;51200
532;268;15780;51372
532;268;15780;51544
532;268;15780;51716
532;268;15780;51888
504;284;15852;52060
504;284;15852;52240
504;284;15852;52412
504;284;15852;52584
504;284;15852;52756
516;288;15832;52928
516;288;15832;53100
516;288;15832;53280
516;288;15832;53452
516;288;15832;53624
516;288;15832;53796
520;256;15876;53968
520;256;15876;54140
520;256;15876;54320
520;256;15876;54492
520;256;15876;54664
520;256;15876;54836
484;284;15864;55008
484;284;15864;55184
484;284;15864;55356
484;284;15864;55528
484;284;15864;55704
484;284;15864;55876
496;348;15812;56048
496;348;15812;56224
496;348;15812;56396
496;348;15812;56568
496;348;15812;56740
524;288;15828;56912
524;288;15828;57084
524;288;15828;57264
524;288;15828;57436
524;288;15828;57608
524;288;15828;57780
536;272;15836;57952
536;272;15836;58124
536;272;15836;58304
536;272;15836;58476
536;272;15836;58648
536;272;15836;58820
524;296;15872;58992
524;296;15872;59164
524;296;15872;59344
524;296;15872;59516
524;296;15872;59688
524;296;15872;59860
508;280;15872;60032
508;280;15872;60204
508;280;15872;60380
508;280;15872;60552
508;280;15872;60724
508;280;15872;60900
504;304;15836;61072
504;304;15836;61244
504;304;15836;61420
504;304;15836;61592
504;304;15836;61764
496;352;15940;61936
496;352;15940;62108
496;352;15940;62280
496;352;15940;62460
496;352;15940;62632
496;352;15940;62804
528;316;15968;62976
528;316;15968;63148
528;316;15968;63320
528;316;15968;63500
528;316;15968;63672
528;316;15968;63844
544;228;15880;64016
544;228;15880;64188
544;228;15880;64360
544;228;15880;64540
544;228;15880;64712
544;228;15880;64884
500;260;15908;65056
500;260;15908;65228
500;260;15908;65400
500;260;15908;40
500;260;15908;212
500;284;15928;384
500;284;15928;560
500;284;15928;732
500;284;15928;908
500;284;15928;1080
500;284;15928;1252
512;240;15912;1424
512;240;15912;1596
512;240;15912;1768
512;240;15912;1948
512;240;15912;2120
512;240;15912;2292
492;268;15928;2464
492;268;15928;2636
492;268;15928;2808
492;268;15928;2988
492;268;15928;3160
492;268;15928;3332
496;276;15952;3504
496;276;15952;3676
496;276;15952;3848
496;276;15952;4028
496;276;15952;4200
500;244;15960;4372
500;244;15960;4544
500;244;15960;4716
500;244;15960;4888
500;244;15960;5064
500;244;15960;5236
524;268;15928;5408
524;268;15928;5580
524;268;15928;5752
524;268;15928;5928
524;268;15928;6104
524;268;15928;6276
488;268;15892;6448
488;268;15892;6620
488;268;15892;6792
488;268;15892;6964
488;268;15892;7144
488;268;15892;7316
504;268;15868;7488
504;268;15868;7660
504;268;15868;7832
504;268;15868;8004
504;268;15868;8184
504;268;15868;8356
548;304;15864;8528
548;304;15864;8700
548;304;15864;8872
548;304;15864;9044
548;304;15864;9220
484;296;15892;9396
484;296;15892;9568
484;296;15892;9740
484;296;15892;9912
484;296;15892;10084
484;296;15892;10260
496;308;15840;10432
496;308;15840;10604
496;308;15840;10776
496;308;15840;10948
496;308;15840;11124
496;308;15840;11300
532;296;15836;11472
532;296;15836;11644
532;296;15836;11816
532;296;15836;11988
532;296;15836;12168
532;296;15836;12340
556;256;15956;12512
556;256;15956;12684
556;256;15956;12856
556;256;15956;13028
556;256;15956;13208
516;312;15996;13380
516;312;15996;13552
516;312;15996;13724
516;312;15996;13896
516;312;15996;14068
516;312;15996;14244
508;288;15956;14416
508;288;15956;14592
508;288;15956;14764
508;288;15956;14936
508;288;15956;15108
508;288;15956;15284
564;292;15924;15456
564;292;15924;15628
564;292;15924;15800
564;292;15924;15972
564;292;15924;16144
564;292;15924;16324
540;340;15876;16496
540;340;15876;16668
540;340;15876;16840
540;340;15876;17012
540;340;15876;17184
524;284;15828;17364
524;284;15828;17536
524;284;15828;17708
524;284;15828;17880
524;284;15828;18052
524;284;15828;18224
516;240;15816;18404
516;240;15816;18576
516;240;15816;18748
516;240;15816;18920
516;240;15816;19092
516;240;15816;19264
520;216;15840;19440
520;216;15840;19612
520;216;15840;19788
520;216;15840;19960
520;216;15840;20132
520;216;15840;20304
524;220;15916;20480
524;220;15916;20652
524;220;15916;20824
524;220;15916;20996
524;220;15916;21168
524;220;15916;21340
504;276;15904;21520
504;276;15904;21692
504;276;15904;21864
504;276;15904;22036
504;276;15904;22208
556;280;15932;22380
556;280;15932;22560
556;280;15932;22732
556;280;15932;22904
556;280;15932;23076
556;280;15932;23248
560;220;15960;23420
560;220;15960;23600
560;220;15960;23772
560;220;15960;23944
560;220;15960;24116
560;220;15960;24288
528;272;15932;24464
528;272;15932;24636
528;272;15932;24808
528;272;15932;24980
528;272;15932;25156
528;272;15932;25328
536;316;15864;25504
536;316;15864;25676
536;316;15864;25848
536;316;15864;26020
536;316;15864;26192
584;272;15824;26364
584;272;15824;26544
584;272;15824;26716
584;272;15824;26888
584;272;15824;27060
584;272;15824;27232
544;272;15936;27404
544;272;15936;27584
544;272;15936;27756
544;272;15936;27928
544;272;15936;28100
544;272;15936;28272
488;272;15968;28444
488;272;15968;28624
488;272;15968;28796
488;272;15968;28968
488;272;15968;29140
488;272;15968;29312
532;292;15952;29484
532;292;15952;29660
532;292;15952;29832
532;292;15952;30004
532;292;15952;30176
504;272;15940;30352
504;272;15940;30524
504;272;15940;30700
504;272;15940;30872
504;272;15940;31044
504;272;15940;31216
492;212;15872;31388
492;212;15872;31560
492;212;15872;31740
492;212;15872;31912
492;212;15872;32084
492;212;15872;32256
488;224;15844;32428
488;224;15844;32600
488;224;15844;32780
488;224;15844;32952
488;224;15844;33124
488;224;15844;33296
468;252;15932;33468
468;252;15932;33640
468;252;15932;33820
468;252;15932;33992
468;252;15932;34164
468;252;15932;34336
508;240;15952;34508
508;240;15952;34680
508;240;15952;34856
508;240;15952;35028
508;240;15952;35200
520;236;15876;35376
520;236;15876;35548
520;236;15876;35724
520;236;15876;35896
520;236;15876;36068
520;236;15876;36240
544;280;15844;36412
544;280;15844;36584
544;280;15844;36764
544;280;15844;36936
544;280;15844;37108
544;280;15844;37280
572;308;15812;37452
572;308;15812;37624
572;308;15812;37804
572;308;15812;37976
572;308;15812;38148
572;308;15812;38320
532;284;15824;38492
532;284;15824;38664
532;284;15824;38844
532;284;15824;39016
532;284;15824;39188
512;300;15916;39360
512;300;15916;39532
512;300;15916;39704
512;300;15916;39880
512;300;15916;40052
512;300;15916;40224
560;348;15920;40396
560;348;15920;40572
560;348;15920;40744
560;348;15920;40920
560;348;15920;41092
560;348;15920;41264
556;320;15888;41436
556;320;15888;41608
556;320;15888;41780
556;320;15888;41960
556;320;15888;42132
556;320;15888;42304
564;288;15904;42476
564;288;15904;42648
564;288;15904;42820
564;288;15904;43000
564;288;15904;43172
608;296;15936;43344
608;296;15936;43516
608;296;15936;43688
608;296;15936;43860
608;296;15936;44040
608;296;15936;44212
556;312;15976;44384
556;312;15976;44556
556;312;15976;44728
556;312;15976;44900
556;312;15976;45076
556;312;15976;45248
496;300;15876;45420
496;300;15876;45592
496;300;15876;45768
496;300;15876;45940
496;300;15876;46116
496;300;15876;46288
516;284;15840;46460
516;284;15840;46632
516;284;15840;46804
516;284;15840;46984
516;284;15840;47156
516;284;15840;47328
552;244;15872;47500
552;244;15872;47672
552;244;15872;47844
552;244;15872;48024
552;244;15872;48196
520;240;15848;48368
520;240;15848;48540
520;240;15848;48712
520;240;15848;48884
520;240;15848;49060
520;240;15848;49236
492;344;15912;49408
492;344;15912;49580
492;344;15912;49752
492;344;15912;49924
492;344;15912;50100
492;344;15912;50272
512;344;15968;50444
512;344;15968;50616
512;344;15968;50788
512;344;15968;50960
512;344;15968;51140
512;344;15968;51312
532;296;15916;51484
532;296;15916;51656
532;296;15916;51828
532;296;15916;52000
532;296;15916;52180
524;276;15764;52352
524;276;15764;52524
524;276;15764;52696
524;276;15764;52868
524;276;15764;53040
524;276;15764;53220
508;276;15824;53392
508;276;15824;53564
508;276;15824;53736
508;276;15824;53908
508;276;15824;54080
508;276;15824;54256
496;300;15852;54428
496;300;15852;54604
496;300;15852;54776
496;300;15852;54948
496;300;15852;55120
496;300;15852;55296
480;280;15780;55468
480;280;15780;55640
480;280;15780;55812
480;280;15780;55984
480;280;15780;56156
528;304;15860;56336
528;304;15860;56508
528;304;15860;56680
528;304;15860;56852
528;304;15860;57024
528;304;15860;57196
588;320;15880;57376
588;320;15880;57548
588;320;15880;57720
588;320;15880;57892
588;320;15880;58064
588;320;15880;58236
592;284;15908;58416
592;284;15908;58588
592;284;15908;58760
592;284;15908;58932
592;284;15908;59104
592;284;15908;59280
580;260;15908;59452
580;260;15908;59624
580;260;15908;59800
580;260;15908;59972
580;260;15908;60144
580;260;15908;60320
536;292;15928;60492
536;292;15928;60664
536;292;15928;60836
536;292;15928;61008
536;292;15928;61180
516;324;15868;61360
516;324;15868;61532
516;324;15868;61704
516;324;15868;61876
516;324;15868;62048
516;324;15868;62220
544;284;15752;62400
544;284;15752;62572
544;284;15752;62744
544;284;15752;62916
544;284;15752;63088
544;284;15752;63260
556;256;15816;63440
556;256;15816;63612
556;256;15816;63784
556;256;15816;63956
556;256;15816;64128
556;256;15816;64300
556;272;15940;64476
556;272;15940;64648
556;272;15940;64820
556;272;15940;64996
556;272;15940;65168
540;288;15988;65340
540;288;15988;65516
540;288;15988;152
540;288;15988;324
540;288;15988;496
540;288;15988;668
488;304;15992;840
488;304;15992;1020
488;304;15992;1192
488;304;15992;1364
488;304;15992;1536
488;304;15992;1708
492;288;15864;1880
492;288;15864;2060
492;288;15864;2232
492;288;15864;2404
492;288;15864;2576
492;288;15864;2748
512;268;15812;2920
512;268;15812;3100
512;268;15812;3272
512;268;15812;3444
512;268;15812;3616
492;264;15888;3788
492;264;15888;3960
492;264;15888;4136
492;264;15888;4308
492;264;15888;4480
492;264;15888;4652
492;260;15884;4828
492;260;15884;5004
492;260;15884;5176
492;260;15884;5348
492;260;15884;5520
492;260;15884;5692
496;264;15864;5864
496;264;15864;6044
496;264;15864;6216
496;264;15864;6388
496;264;15864;6560
496;264;15864;6732
488;260;15816;6904
488;260;15816;7084
488;260;15816;7256
488;260;15816;7428
488;260;15816;7600
488;260;15816;7772
504;228;15800;7944
504;228;15800;8120
504;228;15800;8296
504;228;15800;8468
504;228;15800;8640
564;220;15800;8812
564;220;15800;8984
564;220;15800;9160
564;220;15800;9332
564;220;15800;9504
564;220;15800;9680
600;224;15876;9852
600;224;15876;10024
600;224;15876;10200
600;224;15876;10372
600;224;15876;10544
600;224;15876;10716
580;244;15904;10888
580;244;15904;11060
580;244;15904;11240
580;244;15904;11412
580;244;15904;11584
580;244;15904;11756
560;276;15900;11928
560;276;15900;12100
560;276;15900;12280
560;276;15900;12452
560;276;15900;12624
536;280;15948;12796
536;280;15948;12968
536;280;15948;13140
536;280;15948;13320
536;280;15948;13492
536;280;15948;13664
508;260;15888;13836
508;260;15888;14008
508;260;15888;14180
508;260;15888;14356
508;260;15888;14528
508;260;15888;14700
500;312;15800;14872
500;312;15800;15048
500;312;15800;15220
500;312;15800;15396
500;312;15800;15568
500;312;15800;15740
508;312;15852;15912
508;312;15852;16084
508;312;15852;16264
508;312;15852;16436
508;312;15852;16608
500;268;15856;16780
500;268;15856;16952
500;268;15856;17124
500;268;15856;17304
500;268;15856;17476
500;268;15856;17648
516;320;15820;17820
516;320;15820;17992
516;320;15820;18164
516;320;15820;18340
516;320;15820;18516
516;320;15820;18688
560;296;15824;18860
560;296;15824;19032
560;296;15824;19204
560;296;15824;19380
560;296;15824;19552
560;296;15824;19724
560;276;15852;19896
560;276;15852;20068
560;276;15852;20244
560;276;15852;20420
560;276;15852;20592
560;276;15852;20764
528;320;15848;20936
528;320;15848;21108
528;320;15848;21280
528;320;15848;21460
528;320;15848;21632
492;296;15856;21804
492;296;15856;21976
492;296;15856;22148
492;296;15856;22320
492;296;15856;22500
492;296;15856;22672
508;292;15908;22844
508;292;15908;23016
508;292;15908;23188
508;292;15908;23360
508;292;15908;23536
508;292;15908;23708
532;324;15824;23884
532;324;15824;24056
532;324;15824;24228
532;324;15824;24400
532;324;15824;24576
532;324;15824;24748
564;300;15772;24920
564;300;15772;25092
564;300;15772;25264
564;300;15772;25436
564;300;15772;25616
576;280;15844;25788
576;280;15844;25960
576;280;15844;26132
576;280;15844;26304
576;280;15844;26476
576;280;15844;26656
488;252;15964;26828
488;252;15964;27000
488;252;15964;27172
488;252;15964;27344
488;252;15964;27516
488;252;15964;27696
484;320;15940;27868
484;320;15940;28040
484;320;15940;28212
484;320;15940;28384
484;320;15940;28560
484;320;15940;28732
532;376;15844;28904
532;376;15844;29076
532;376;15844;29252
532;376;15844;29424
532;376;15844;29600
544;324;15820;29772
544;324;15820;29944
544;324;15820;30116
544;324;15820;30288
544;324;15820;30460
544;324;15820;30640
588;296;15820;30812
588;296;15820;30984
588;296;15820;31156
588;296;15820;31328
588;296;15820;31500
588;296;15820;31680
564;288;15868;31852
564;288;15868;32024
564;288;15868;32196
564;288;15868;32368
564;288;15868;32540
564;288;15868;32720
508;276;15892;32892
508;276;15892;33064
508;276;15892;33236
508;276;15892;33408
508;276;15892;33580
508;276;15892;33756
516;296;15952;33928
516;296;15952;34100
516;296;15952;34272
516;296;15952;34448
516;296;15952;34620
500;356;16032;34796
500;356;16032;34968
500;356;16032;35140
500;356;16032;35312
500;356;16032;35484
500;356;16032;35656
512;360;16024;35836
512;360;16024;36008
512;360;16024;36180
512;360;16024;36352
512;360;16024;36524
512;360;16024;36696
556;344;15992;36876
556;344;15992;37048
556;344;15992;37220
556;344;15992;37392
556;344;15992;37564
556;344;15992;37736
516;328;15904;37916
516;328;15904;38088
516;328;15904;38260
516;328;15904;38432
516;328;15904;38604
504;288;15824;38776
504;288;15824;38952
504;288;15824;39124
504;288;15824;39296
504;288;15824;39468
504;288;15824;39644
528;292;15812;39820
528;292;15812;39992
528;292;15812;40164
528;292;15812;40336
528;292;15812;40508
528;292;15812;40680
532;276;15828;40860
532;276;15828;41032
532;276;15828;41204
532;276;15828;41376
532;276;15828;41548
532;276;15828;41720
548;260;15832;41900
548;260;15832;42072
548;260;15832;42244
548;260;15832;42416
548;260;15832;42588
532;256;15888;42760
532;256;15888;42936
532;256;15888;43112
532;256;15888;43284
532;256;15888;43456
532;256;15888;43628
528;272;15956;43800
528;272;15956;43976
528;272;15956;44148
528;272;15956;44320
528;272;15956;44492
528;272;15956;44664
504;292;15912;44836
504;292;15912;45016
504;292;15912;45188
504;292;15912;45360
504;292;15912;45532
504;292;15912;45704
480;296;15908;45876
480;296;15908;46056
480;296;15908;46228
480;296;15908;46400
480;296;15908;46572
480;296;15908;46744
520;344;15932;46916
520;344;15932;47096
520;344;15932;47268
520;344;15932;47440
520;344;15932;47612
524;304;15932;47784
524;304;15932;47956
524;304;15932;48132
524;304;15932;48304
524;304;15932;48480
524;304;15932;48652
468;236;15996;48824
468;236;15996;48996
468;236;15996;49172
468;236;15996;49344
468;236;15996;49516
468;236;15996;49688
480;288;15964;49860
480;288;15964;50032
480;288;15964;50212
480;288;15964;50384
480;288;15964;50556
480;288;15964;50728
548;348;15856;50900
548;348;15856;51080
548;348;15856;51252
548;348;15856;51424
548;348;15856;51596
532;360;15832;51768
532;360;15832;51940
532;360;15832;52120
532;360;15832;52292
532;360;15832;52464
532;360;15832;52636
500;348;15916;52808
500;348;15916;52980
500;348;15916;53156
500;348;15916;53332
500;348;15916;53504
500;348;15916;53676
536;316;15892;53848
536;316;15892;54020
536;316;15892;54196
536;316;15892;54368
536;316;15892;54540
536;316;15892;54712
536;328;15792;54884
536;328;15792;55056
536;328;15792;55236
536;328;15792;55408
536;328;15792;55580
528;344;15888;55752
528;344;15888;55924
528;344;15888;56096
528;344;15888;56276
528;344;15888;56448
528;344;15888;56620
516;328;15952;56792
516;328;15952;56964
516;328;15952;57136
516;328;15952;57316
516;328;15952;57488
516;328;15952;57660
508;304;15900;57832
508;304;15900;58004
508;304;15900;58176
508;304;15900;58352
508;304;15900;58524
508;304;15900;58700
524;276;15964;58872
524;276;15964;59044
524;276;15964;59216
524;276;15964;59392
524;276;15964;59564
524;276;15964;59736
524;284;15928;59908
524;284;15928;60080
524;284;15928;60252
524;284;15928;60432
524;284;15928;60604
556;276;15840;60776
556;276;15840;60948
556;276;15840;61120
556;276;15840;61292
556;276;15840;61472
556;276;15840;61644
572;244;15860;61816
572;244;15860;61988
572;244;15860;62160
572;244;15860;62332
572;244;15860;62512
572;244;15860;62684
528;240;15932;62856
528;240;15932;63028
528;240;15932;63200
528;240;15932;63376
528;240;15932;63548
528;240;15932;63720
544;272;15920;63896
544;272;15920;64068
544;272;15920;64240
544;272;15920;64416
544;272;15920;64588
560;296;15864;64760
560;296;15864;64932
560;296;15864;65104
560;296;15864;65276
560;296;15864;65456
560;296;15864;92
508;244;15908;264
508;244;15908;436
508;244;15908;608
508;244;15908;780
508;244;15908;960
508;244;15908;1132
484;252;15884;1304
484;252;15884;1476
484;252;15884;1648
484;252;15884;1820
484;252;15884;2000
484;252;15884;2172
512;288;15844;2344
512;288;15844;2516
512;288;15844;2688
512;288;15844;2860
