ACC_X 0, ACC_Y 0, ACC_Z 0, Time[ms]
-0.012207, -0.184088, 1.023224,  --- 1.001
-0.010743, -0.188238, 1.020050,  --- 3.999
-0.005860, -0.185552, 1.018341,  --- 6.000
-0.015625, -0.191168, 1.017365,  --- 7.999
-0.015625, -0.187750, 1.027131,  --- 10.000
-0.005127, -0.190924, 1.023957,  --- 13.000
-0.015625, -0.189947, 1.018097,  --- 14.999
-0.009766, -0.187750, 1.013702,  --- 15.999
-0.004151, -0.193121, 1.027619,  --- 18.000
-0.006104, -0.188971, 1.013947,  --- 20.000
-0.007569, -0.191900, 1.023713,  --- 22.000
-0.015625, -0.187506, 1.020050,  --- 24.000
-0.015625, -0.189215, 1.020294,  --- 26.000
-0.015625, -0.187994, 1.027619,  --- 28.000
-0.015625, -0.190435, 1.022980,  --- 28.999
-0.005615, -0.194830, 1.018830,  --- 32.000
-0.015625, -0.190191, 1.016144,  --- 34.000
-0.008301, -0.192633, 1.020539,  --- 34.998
-0.015625, -0.188971, 1.020539,  --- 37.000
-0.006592, -0.193853, 1.024201,  --- 39.002
-0.007813, -0.189215, 1.016388,  --- 41.016
-0.015625, -0.192633, 1.021027,  --- 44.001
-0.015625, -0.196783, 1.015656,  --- 46.004
-0.015625, -0.195318, 1.013702,  --- 49.001
-0.015625, -0.193121, 1.023468,  --- 52.005
-0.015625, -0.192389, 1.017365,  --- 54.003
0.000000, -0.193853, 0.003174,  --- 56.001
-0.007569, -0.191656, 1.021027,  --- 59.031
-0.005371, -0.192144, 1.021027,  --- 61.002
-0.005371, -0.188726, 1.022004,  --- 64.001
-0.006592, -0.189459, 1.022980,  --- 67.002
-0.005860, -0.191412, 1.021759,  --- 71.002
-0.015625, -0.192633, -0.003662,  --- 74.002
-0.004883, -0.191656, 1.015900,  --- 76.000
-0.015625, -0.190680, 1.021515,  --- 79.023
-0.015625, -0.189215, 1.022736,  --- 82.002
-0.015625, -0.188971, 1.024689,  --- 85.001
-0.015625, -0.190924, 1.018097,  --- 88.003
-0.005371, -0.191168, 1.023224,  --- 90.002
-0.015625, -0.190924, 1.021271,  --- 92.003
-0.005860, -0.190191, 1.030060,  --- 95.000
-0.003906, -0.184576, 1.015411,  --- 98.000
-0.005615, -0.190680, 1.018097,  --- 100.000
-0.004883, -0.186529, 1.021759,  --- 100.999
-0.006592, -0.185064, 1.015656,  --- 102.999
-0.007813, -0.191412, 1.018341,  --- 104.999
-0.015625, -0.203131, 1.022248,  --- 106.999
-0.015625, -0.189459, 1.020783,  --- 109.013
-0.015625, -0.190435, 1.022004,  --- 112.012
-0.000488, -0.193853, 1.019806,  --- 113.999
-0.002197, -0.192389, 1.026642,  --- 116.000
-0.015625, -0.191168, 1.021027,  --- 117.999
-0.015625, -0.191168, 1.019318,  --- 119.999
-0.015625, -0.187262, 1.023468,  --- 121.999
-0.001221, -0.189215, 1.013947,  --- 124.999
-0.004883, -0.186041, 1.022492,  --- 127.000
-0.003418, -0.185064, 1.020050,  --- 129.002
-0.015625, -0.184332, 1.014923,  --- 131.000
-0.008301, -0.191168, 1.000030,  --- 131.999
-0.003662, -0.188726, 1.020294,  --- 135.020
-0.015625, -0.188482, 1.017365,  --- 136.999
-0.015625, -0.191168, 1.020294,  --- 140.007
-0.003662, -0.191168, 1.022736,  --- 142.999
-0.003662, -0.191656, 1.015656,  --- 144.999
-0.007324, -0.192389, 1.024445,  --- 147.000
-0.007569, -0.188482, 1.021271,  --- 148.999
-0.015625, -0.187262, 1.020539,  --- 149.999
0.000000, -0.184332, 1.018097,  --- 153.001
-0.007569, -0.187017, 1.014435,  --- 155.008
-0.009278, -0.191656, 1.021759,  --- 156.999
-0.015625, -0.194342, 1.019318,  --- 160.000
-0.010010, -0.190680, 1.016144,  --- 161.999
-0.015381, -0.183599, 1.019806,  --- 164.000
-0.015625, -0.187994, 1.021515,  --- 166.000
-0.009522, -0.191168, 1.018830,  --- 167.999
-0.015625, -0.191168, 1.016632,  --- 171.000
-0.013916, -0.194098, 1.024933,  --- 172.999
-0.011475, -0.193365, 1.014679,  --- 174.999
-0.015625, -0.194098, 1.021759,  --- 177.000
-0.005371, -0.195807, 1.015167,  --- 179.000
-0.015625, -0.191900, 1.018097,  --- 180.998
-0.009766, -0.193609, 1.016876,  --- 183.004
-0.009033, -0.193609, 1.027619,  --- 184.999
-0.015625, -0.194830, 1.020783,  --- 186.999
-0.015625, -0.192144, 1.021515,  --- 190.000
-0.015625, -0.191412, 1.022736,  --- 191.999
-0.015625, -0.190435, 1.019318,  --- 192.999
-0.000061, -0.192633, 1.029328,  --- 195.002
-0.011475, -0.196539, 1.015656,  --- 196.999
-0.006836, -0.189703, 1.016144,  --- 198.999
-0.015625, -0.194098, 1.021515,  --- 201.999
-0.005127, -0.195807, 1.017609,  --- 203.999
-0.006836, -0.004151, 1.021759,  --- 205.999
-0.015625, -0.194586, 1.013947,  --- 208.000
-0.008057, -0.189215, 1.016388,  --- 210.000
-0.007080, -0.191412, 1.013458,  --- 211.999
-0.010743, -0.192144, 1.030549,  --- 214.000
-0.015625, -0.195074, 1.017365,  --- 215.999
-0.005860, -0.194098, 1.019074,  --- 217.999
-0.015625, -0.194586, 1.022004,  --- 220.001
-0.015625, -0.193853, 1.023713,  --- 222.000
-0.015625, -0.193121, 1.019074,  --- 222.999
-0.015625, -0.195807, 1.022736,  --- 226.001
-0.006836, 0.011475, 1.019074,  --- 229.000
-0.015625, -0.193853, 1.017365,  --- 231.001
-0.015625, -0.187994, 1.016876,  --- 233.000
0.000000, -0.189459, 1.024445,  --- 236.001
-0.015625, -0.188238, 1.027131,  --- 238.003
-0.003906, -0.196783, 1.026642,  --- 240.999
-0.015625, -0.189947, 1.020539,  --- 243.006
-0.005615, -0.187506, 1.020539,  --- 246.001
-0.015625, -0.188726, 1.019562,  --- 249.000
-0.005127, -0.183355, 1.022248,  --- 251.999
-0.003906, -0.172613, 1.023468,  --- 253.999
-0.002686, -0.182867, 1.029328,  --- 256.001
-0.001709, -0.186285, 1.024445,  --- 259.000
-0.015625, -0.185552, 1.023224,  --- 261.001
-0.015625, -0.189703, 1.015167,  --- 264.000
-0.015625, -0.188238, 1.019562,  --- 266.001
-0.015625, -0.189947, 1.023468,  --- 269.001
-0.003418, -0.185552, 1.021515,  --- 270.999
-0.004151, -0.187017, 1.022736,  --- 272.000
-0.001709, -0.186773, 1.016876,  --- 274.000
-0.015625, -0.193609, 1.014679,  --- 275.998
-0.010010, -0.189459, 1.025666,  --- 277.999
-0.004395, -0.189215, 1.018585,  --- 280.002
-0.004395, -0.185552, 1.024201,  --- 282.000
-0.002930, -0.191168, -0.002930,  --- 283.998
-0.015625, -0.186285, 1.021271,  --- 286.001
-0.015625, -0.188726, 1.012726,  --- 287.999
-0.015625, -0.186529, 1.018830,  --- 289.999
-0.015625, -0.190191, 1.026154,  --- 291.999
-0.007813, -0.186773, 1.020294,  --- 295.001
-0.005860, -0.188482, 1.021027,  --- 296.999
-0.015625, -0.194098, 1.020539,  --- 298.999
-0.007569, -0.191900, 1.026886,  --- 300.998
-0.007080, -0.189459, 1.029572,  --- 302.999
-0.015625, -0.186773, 1.021027,  --- 304.999
-0.015625, -0.193121, 1.022980,  --- 306.999
-0.007324, -0.188238, 1.019074,  --- 307.999
-0.015625, -0.191168, 1.020783,  --- 311.000
-0.005860, -0.195318, 1.015900,  --- 312.998
-0.000061, -0.194098, 1.019806,  --- 313.999
-0.015625, -0.190435, 1.017365,  --- 316.003
-0.003418, -0.191412, 1.020539,  --- 317.999
-0.015625, -0.194342, 1.022004,  --- 319.999
-0.015625, -0.196051, 1.020783,  --- 322.000
-0.015625, -0.195074, 1.018830,  --- 323.999
-0.015625, -0.191900, 1.028351,  --- 325.999
-0.015625, -0.198492, 1.020539,  --- 328.001
-0.015625, -0.194830, 1.025422,  --- 330.000
-0.005127, -0.194830, 1.024689,  --- 332.000
-0.005371, -0.194342, 1.022248,  --- 334.001
-0.007080, -0.191168, 1.019806,  --- 336.000
-0.003906, -0.195074, 1.015656,  --- 337.000
-0.007569, -0.193609, 1.015167,  --- 340.003
-0.007813, -0.197760, 1.016876,  --- 342.003
-0.015625, -0.196295, 1.021515,  --- 344.003
-0.015625, -0.190435, 1.026398,  --- 346.001
-0.015625, -0.190191, 1.018097,  --- 349.000
-0.015625, -0.192633, 1.017609,  --- 350.999
-0.015625, -0.190680, 1.012482,  --- 353.003
-0.015625, -0.187994, 1.026154,  --- 355.000
-0.015625, -0.190680, 1.020294,  --- 356.999
-0.003662, -0.191656, 1.010773,  --- 359.001
-0.008545, -0.190680, 1.014435,  --- 360.999
-0.008057, -0.191412, 1.020539,  --- 362.998
-0.015625, -0.189947, 1.020050,  --- 365.001
-0.015625, -0.194098, -0.003418,  --- 367.000
-0.015625, -0.189947, 1.014679,  --- 368.999
-0.006592, -0.193365, 1.016632,  --- 371.000
-0.015625, -0.191412, 1.011261,  --- 373.000
-0.011719, -0.191900, 1.023957,  --- 374.999
-0.007569, -0.191656, 1.020050,  --- 377.002
-0.015625, -0.188726, 1.020050,  --- 379.000
-0.007324, -0.189215, 1.023224,  --- 379.999
-0.008057, -0.190435, 1.021515,  --- 381.999
-0.004395, -0.190680, 1.012970,  --- 384.999
-0.015625, -0.184332, 1.026398,  --- 387.000
-0.015625, -0.184332, 1.025177,  --- 389.002
-0.015625, -0.188971, 1.011261,  --- 390.999
-0.010010, -0.187994, 1.012970,  --- 392.000
-0.005615, -0.181646, 1.022736,  --- 395.005
-0.015625, -0.184332, 1.022248,  --- 398.000
-0.015625, -0.189459, 1.022980,  --- 400.001
-0.007569, -0.185064, 1.020783,  --- 403.002
-0.015625, -0.190924, 1.023713,  --- 405.002
-0.015625, -0.188726, 1.021027,  --- 408.003
-0.003174, -0.182867, 1.021027,  --- 410.001
-0.015625, -0.187262, 1.024445,  --- 413.005
-0.003662, -0.187994, 1.024445,  --- 416.000
-0.007813, -0.189947, 1.019562,  --- 417.999
-0.015625, -0.002686, 1.016388,  --- 421.000
-0.008545, -0.186285, 1.016876,  --- 423.000
-0.015625, -0.185064, 1.019806,  --- 425.001
-0.002930, -0.189947, 1.017120,  --- 427.001
-0.005615, -0.190191, 1.022004,  --- 429.000
-0.015625, -0.193121, 1.020539,  --- 432.001
-0.015625, -0.192877, 1.022980,  --- 435.000
-0.015625, -0.190924, 1.022004,  --- 437.002
-0.015625, -0.190191, 1.025422,  --- 440.000
-0.006104, -0.194830, 1.017609,  --- 441.999
-0.015625, -0.192633, 1.023224,  --- 445.000
-0.004883, -0.190924, 1.022248,  --- 446.999
-0.015625, -0.192633, 1.021759,  --- 449.000
-0.015625, -0.194586, 1.023957,  --- 451.999
-0.004395, -0.188726, 1.022492,  --- 453.999
-0.009766, -0.192389, 1.022248,  --- 456.003
-0.003662, -0.191656, 1.018097,  --- 457.999
-0.015625, -0.188238, 1.025177,  --- 459.000
-0.015625, -0.190924, 1.020539,  --- 462.001
-0.005127, -0.191168, 1.026154,  --- 463.999
-0.015625, -0.193853, 1.019806,  --- 465.999
-0.015625, -0.003662, 1.022492,  --- 468.000
-0.001709, -0.191900, 1.018585,  --- 469.999
-0.006348, -0.192877, 1.019562,  --- 471.999
-0.015625, -0.189947, 1.014679,  --- 474.001
-0.015625, -0.192877, 1.021515,  --- 475.999
-0.007569, -0.193609, 1.013458,  --- 477.999
-0.015625, -0.193853, 1.025177,  --- 480.001
-0.015625, -0.193609, 1.014191,  --- 481.999
-0.006836, -0.188482, 1.017120,  --- 483.999
-0.015625, -0.193365, 1.025910,  --- 486.000
-0.015625, -0.187262, 1.029084,  --- 488.000
-0.009522, -0.187750, 1.026398,  --- 489.999
-0.005860, -0.194342, 1.014191,  --- 492.001
-0.015625, -0.191656, 1.025422,  --- 493.999
-0.015625, -0.189215, 1.022980,  --- 495.999
-0.015625, -0.194098, 1.017609,  --- 498.000
-0.015625, -0.191168, 1.015900,  --- 500.000
-0.002686, -0.190191, 1.020539,  --- 501.999
-0.015625, -0.192389, 1.025177,  --- 504.002
-0.015625, -0.001221, 1.020783,  --- 506.000
-0.009766, -0.188971, 1.025422,  --- 508.000
-0.015625, -0.189703, 1.015411,  --- 510.005
-0.015625, -0.190435, 1.016144,  --- 512.000
-0.015625, -0.186285, 1.013702,  --- 513.999
-0.015625, -0.184332, 1.021027,  --- 514.999
-0.011719, -0.190924, 1.017609,  --- 517.003
-0.015625, -0.190680, 1.020294,  --- 518.999
-0.009278, -0.191656, 1.023713,  --- 521.001
-0.005127, -0.013184, 1.016388,  --- 523.000
-0.009033, -0.188726, 1.016144,  --- 524.999
-0.009033, -0.187750, 1.022736,  --- 526.999
-0.006836, -0.189459, 1.026154,  --- 529.001
-0.005127, -0.186041, 1.022004,  --- 530.999
-0.015625, -0.187262, 1.020050,  --- 532.999
-0.008057, -0.190680, 1.020783,  --- 535.004
-0.015625, -0.188971, 1.029084,  --- 537.000
-0.007569, -0.195807, 1.022004,  --- 538.999
-0.005615, -0.195563, 1.024689,  --- 541.002
-0.015625, -0.186529, 1.014679,  --- 543.000
-0.006836, -0.188238, 1.015656,  --- 544.000
-0.010254, -0.190435, 1.021271,  --- 547.001
-0.008789, -0.194342, 1.023468,  --- 549.000
-0.003174, -0.192633, 1.023224,  --- 550.999
-0.006592, -0.187750, 1.018341,  --- 553.008
-0.007324, -0.187750, 1.019074,  --- 554.999
-0.008789, -0.192144, 1.022248,  --- 556.001
-0.006592, -0.191168, 1.019806,  --- 559.001
-0.015625, -0.193365, 1.022248,  --- 560.999
-0.015625, -0.190924, 1.023224,  --- 562.999
-0.004883, -0.203131, 1.021027,  --- 565.001
-0.015625, -0.195074, 1.019806,  --- 567.000
-0.015625, -0.188726, 1.028107,  --- 568.999
-0.007080, -0.188726, 1.024201,  --- 571.001
-0.005860, -0.185064, 1.021759,  --- 573.000
-0.006836, -0.190924, 1.019074,  --- 574.999
-0.003174, -0.191168, 1.021027,  --- 577.000
-0.015625, -0.190191, 1.028840,  --- 579.000
-0.003662, -0.188726, 1.020539,  --- 580.000
-0.000061, -0.194342, 1.022248,  --- 583.000
-0.015625, -0.191900, 1.021515,  --- 585.000
-0.004883, -0.189459, 1.023957,  --- 586.999
-0.015625, -0.189459, 1.015167,  --- 589.000
0.000000, -0.192633, 1.023957,  --- 591.000
-0.015625, -0.191412, 1.016876,  --- 593.000
-0.005860, -0.193853, 1.024689,  --- 595.000
-0.004395, -0.192389, -0.011475,  --- 597.001
-0.015625, -0.191168, 1.015900,  --- 598.999
-0.010010, -0.191412, 1.015656,  --- 602.001
-0.007080, -0.189703, 1.023224,  --- 603.999
-0.003418, -0.187506, 1.010529,  --- 604.999
-0.015625, -0.188238, 1.017120,  --- 607.004
-0.015625, -0.189459, 1.022736,  --- 608.999
-0.008789, -0.187994, 1.028840,  --- 611.000
-0.005371, -0.188482, 1.023224,  --- 613.006
-0.004151, -0.188971, 1.021759,  --- 614.999
-0.015625, -0.186285, 1.025910,  --- 617.000
-0.015625, -0.185797, 1.018830,  --- 619.003
-0.015625, -0.187017, 1.026398,  --- 620.999
-0.002930, -0.192389, 1.021759,  --- 622.999
-0.015625, 0.001709, 1.012238,  --- 626.000
-0.015625, -0.188971, 1.015900,  --- 627.999
-0.015625, -0.188971, 1.023957,  --- 630.002
-0.015625, -0.191168, 1.020539,  --- 632.006
-0.008789, -0.187994, 1.020050,  --- 635.001
-0.007080, -0.191900, 1.023468,  --- 638.009
-0.015625, -0.187017, 1.020050,  --- 641.000
-0.009278, -0.190191, 1.022980,  --- 643.000
-0.008545, -0.192877, 1.027619,  --- 646.000
-0.003418, -0.190435, 1.023957,  --- 649.001
-0.015625, -0.185552, 1.022004,  --- 652.000
-0.007324, -0.184576, 1.017853,  --- 653.999
-0.004639, -0.191900, 1.023224,  --- 656.005
-0.008057, -0.188971, 1.016876,  --- 657.999
0.000000, -0.188971, 1.021759,  --- 660.000
-0.015625, -0.188971, 1.023224,  --- 662.001
-0.015625, -0.190435, 1.020294,  --- 665.002
-0.006592, -0.194586, 1.022248,  --- 667.003
-0.008545, -0.002441, 1.018830,  --- 670.002
-0.015625, -0.191656, 1.021515,  --- 672.001
-0.015625, -0.191168, 1.022736,  --- 675.000
-0.009522, -0.190680, 1.024201,  --- 676.999
-0.004883, -0.192877, 1.023713,  --- 679.000
-0.006592, -0.191656, 1.019562,  --- 681.000
-0.015625, -0.187994, 1.017853,  --- 682.999
-0.015625, -0.191168, 1.008819,  --- 683.999
-0.004395, -0.198004, 1.019562,  --- 687.000
-0.007324, -0.190680, 1.018341,  --- 689.000
-0.015625, -0.187750, 1.025422,  --- 690.999
-0.015625, -0.194586, 1.018585,  --- 693.000
-0.012940, -0.194342, 1.009796,  --- 695.000
-0.015625, -0.192144, 1.014191,  --- 697.015
-0.009278, -0.194586, 1.018097,  --- 699.001
-0.006348, -0.193609, 1.014435,  --- 701.000
-0.015625, -0.192389, 1.026642,  --- 703.001
-0.015625, -0.192633, 1.029816,  --- 705.000
-0.006836, -0.191168, 1.024933,  --- 706.999
-0.003662, -0.194830, 1.017609,  --- 710.009
-0.004883, -0.193609, 1.019806,  --- 712.000
-0.004883, -0.194342, 1.024201,  --- 714.000
-0.015625, -0.191412, 1.014191,  --- 717.003
-0.005860, -0.194342, 1.022248,  --- 719.000
-0.015625, -0.187750, 1.013702,  --- 721.000
-0.002930, -0.191656, 1.022248,  --- 723.001
-0.008301, -0.191168, 1.019562,  --- 725.000
-0.004639, -0.193853, 1.019562,  --- 725.999
0.000000, -0.188726, 1.020294,  --- 729.002
-0.015625, -0.188238, 1.022004,  --- 730.999
-0.015625, -0.188238, 1.024445,  --- 732.999
-0.008545, -0.203131, 1.022004,  --- 735.002
-0.015625, -0.188726, 1.022248,  --- 737.000
-0.015625, -0.187750, 1.014923,  --- 738.000
-0.005860, -0.188482, 1.012970,  --- 741.005
-0.015625, -0.187017, 1.024933,  --- 743.000
-0.001953, -0.186529, 1.021515,  --- 744.999
-0.015625, -0.186285, 1.016876,  --- 747.003
-0.002930, -0.187506, 1.016388,  --- 749.001
-0.005371, -0.188482, 1.018341,  --- 750.999
-0.015625, -0.187506, 1.019806,  --- 753.001
-0.008789, -0.185308, 1.022736,  --- 755.000
-0.004151, -0.188238, 1.024933,  --- 757.000
-0.015625, -0.188726, 1.021027,  --- 759.000
-0.003418, -0.185797, 1.018585,  --- 761.001
-0.015625, -0.185308, 1.015900,  --- 763.000
-0.015625, -0.188726, 1.019318,  --- 765.003
-0.000244, -0.187750, 1.019806,  --- 766.999
-0.004395, -0.185064, 1.019074,  --- 769.000
-0.009278, -0.186041, 1.022248,  --- 771.003
-0.015625, -0.188482, 1.019562,  --- 773.000
-0.015625, -0.186773, 1.018830,  --- 775.000
0.000000, -0.188971, 1.013947,  --- 777.000
-0.015625, -0.184576, 1.018341,  --- 778.999
-0.005371, -0.188238, 1.015411,  --- 781.000
-0.004395, -0.185797, 1.016388,  --- 783.000
-0.008545, -0.188971, 1.023713,  --- 785.001
-0.008301, -0.190191, 1.018097,  --- 786.999
-0.015625, -0.186285, -0.008789,  --- 789.001
-0.015625, -0.189215, 1.020294,  --- 790.999
-0.015625, -0.188482, 1.017120,  --- 793.015
-0.004883, -0.187506, 1.021027,  --- 796.000
-0.015625, -0.186773, 1.027375,  --- 796.999
-0.005615, -0.190191, 1.021515,  --- 799.000
-0.009522, -0.189703, 1.023224,  --- 801.001
-0.015625, -0.189947, 1.014435,  --- 803.000
-0.006592, -0.189947, 1.019318,  --- 804.999
-0.015625, -0.188482, 1.015656,  --- 807.001
-0.007569, -0.193121, 1.019074,  --- 808.999
-0.006592, -0.195074, 1.020539,  --- 810.999
-0.015625, -0.190435, 1.020783,  --- 813.005
-0.010987, -0.191412, 1.019562,  --- 815.000
-0.015625, -0.197760, 1.018830,  --- 817.000
-0.008301, -0.197272, 1.015656,  --- 819.003
-0.007813, -0.193609, 1.015656,  --- 821.000
-0.008545, -0.193853, 1.020050,  --- 823.000
-0.007080, -0.191412, 1.017120,  --- 826.004
-0.015625, -0.193853, 1.019074,  --- 828.001
-0.015625, -0.194830, 1.017853,  --- 831.002
-0.002441, -0.194098, 1.022980,  --- 834.001
-0.015625, -0.189459, 1.027131,  --- 836.001
-0.015625, -0.193121, 1.022004,  --- 838.002
-0.015625, -0.190924, 1.024201,  --- 840.000
-0.010010, -0.191900, 1.022004,  --- 842.999
-0.015625, -0.195563, 1.018585,  --- 845.000
-0.003906, -0.194098, 1.022980,  --- 847.000
-0.015625, -0.193121, 1.021271,  --- 850.003
-0.004883, -0.189459, 1.013214,  --- 852.000
-0.015625, -0.191656, 1.012482,  --- 853.999
-0.003906, -0.189459, 1.013214,  --- 857.001
-0.015625, -0.190924, 1.018585,  --- 858.999
-0.005371, -0.190680, 1.014679,  --- 861.000
-0.005371, -0.191168, 1.023468,  --- 862.999
-0.015625, -0.195807, 1.020539,  --- 864.999
-0.015625, -0.193853, 1.012482,  --- 865.999
-0.005615, -0.176519, 1.016144,  --- 868.000
-0.003906, -0.190435, 1.025666,  --- 869.999
-0.015625, -0.190435, 1.023224,  --- 872.000
-0.015625, 0.013672, 1.012482,  --- 874.001
-0.006592, -0.188726, 1.018097,  --- 875.999
-0.007324, -0.185064, 1.021271,  --- 877.999
-0.015625, -0.198004, 1.025910,  --- 878.999
-0.008545, -0.190680, 1.021271,  --- 881.000
-0.015625, -0.188726, 1.025177,  --- 883.000
-0.006592, -0.188726, 1.020539,  --- 885.002
-0.015625, -0.191900, 1.012970,  --- 887.000
-0.015625, -0.190191, 1.022248,  --- 887.999
-0.006592, -0.187750, 1.017120,  --- 889.999
-0.015625, -0.183843, 1.026398,  --- 891.999
-0.015625, -0.188482, 1.024933,  --- 894.000
-0.007813, -0.182134, 1.023957,  --- 896.000
-0.015625, -0.185064, 1.026398,  --- 898.001
-0.015625, -0.184820, 1.016144,  --- 900.000
-0.015625, -0.187262, 1.028107,  --- 901.999
-0.007813, -0.187750, 1.024445,  --- 904.001
-0.015625, -0.188482, 1.024689,  --- 906.000
-0.015625, -0.186773, 1.029572,  --- 906.999
-0.015625, -0.187017, 1.022004,  --- 908.999
-0.006592, -0.186773, 1.016144,  --- 911.000
-0.015625, -0.188726, 1.021759,  --- 912.999
-0.006348, -0.191656, 1.018097,  --- 915.000
-0.015625, -0.188238, 1.028351,  --- 917.000
-0.015625, -0.188238, 1.021271,  --- 919.000
-0.005371, -0.188971, 1.025910,  --- 919.999
-0.015625, -0.190680, 1.022736,  --- 923.000
-0.007569, -0.191412, 1.024201,  --- 925.000
-0.008545, -0.203131, 1.017609,  --- 926.000
-0.015625, -0.192389, 1.015411,  --- 928.002
-0.015625, -0.194830, 1.014679,  --- 930.000
-0.010254, -0.193121, 1.010284,  --- 935.285
-0.015625, -0.192877, 1.017365,  --- 937.255
-0.007813, -0.190680, 1.015656,  --- 939.255
-0.015625, -0.193365, 1.011261,  --- 941.257
0.000000, -0.187262, 1.020294,  --- 943.322
-0.008301, -0.189215, 1.022248,  --- 944.963
-0.004151, -0.189947, 1.015167,  --- 946.696
-0.005615, -0.188238, 1.019074,  --- 948.692
-0.015625, -0.191656, 1.019318,  --- 950.692
-0.004639, -0.193853, 1.024689,  --- 952.692
-0.007569, -0.190680, 1.021515,  --- 954.692
-0.015625, -0.194342, 1.014923,  --- 956.692
-0.015625, -0.192877, 1.011505,  --- 957.692
-0.015625, -0.190680, 1.017853,  --- 959.691
-0.006836, -0.192633, 1.017120,  --- 961.691
-0.015625, -0.195074, 1.019074,  --- 963.691
-0.015625, -0.195074, 1.017365,  --- 965.693
-0.015625, -0.192389, 1.018830,  --- 966.692
-0.015625, -0.194342, 1.026398,  --- 968.692
-0.015625, -0.197272, 1.020539,  --- 970.693
-0.006836, -0.194830, 1.013702,  --- 972.692
-0.002197, -0.192144, 1.023713,  --- 974.692
-0.002197, -0.004151, 1.023713,  --- 976.692
-0.007813, -0.193365, 1.021271,  --- 978.692
-0.015625, -0.193121, 1.016876,  --- 980.691
-0.015625, -0.195807, 1.025422,  --- 982.695
-0.004395, -0.192144, 1.022248,  --- 984.692
-0.015625, -0.187994, 1.026154,  --- 986.691
-0.001465, -0.190435, 1.016144,  --- 988.695
-0.015625, -0.194830, 1.018341,  --- 990.692
-0.015625, -0.194342, 1.020050,  --- 991.691
-0.015625, -0.192389, 1.021515,  --- 993.691
-0.015625, -0.190680, 1.016144,  --- 995.692
-0.006836, -0.193365, 1.018830,  --- 997.691
-0.006592, -0.191656, 1.023957,  --- 999.693
-0.015625, -0.183355, 1.014191,  --- 1001.694
